File: Degussa_P25.dat
# M.B. Degussa P25
# Wavelength(nm) Absorbance(a.u.)
#	A.M. 195 min	A.M. 120 min	A.M. 90 min	A.M. 60 min	A.M. 30 min	A.M. 15 min	A.M. 5 min	A.M. 0 min
199.408	-0.02648	-0.06222	-0.06742	-0.03847	-0.06588	-0.01282	0.01132		0.18922
201.196	-0.06532	-0.06783	-0.08081	-0.04339	-0.05985	-0.06991	0.01801		0.1756
202.984	-0.02432	-0.0499		-0.05573	-0.03445	-0.04137	-0.02216	0.06561		0.15351
204.772	-0.06179	-0.04207	-0.05387	-0.0391	-0.06963	-0.05178	0.03961	0.15684
206.56	-0.03454	-0.04999	-0.05229	-0.03812	-0.03995	-0.03232	0.04762	0.17835
208.347	-0.0333	-0.05019	-0.05041	-0.03512	-0.04139	-0.03242	0.04912	0.18002
210.134	-0.03569	-0.05141	-0.05008	-0.03644	-0.04026	-0.03616	0.04576	0.17727
211.921	-0.03509	-0.05303	-0.04964	-0.037	-0.041	-0.03458	0.0468	0.17884
213.707	-0.03656	-0.05653	-0.0488	-0.03853	-0.04349	-0.03282	0.04348	0.17624
215.494	-0.0388	-0.05604	-0.04912	-0.03894	-0.04385	-0.03244	0.04309	0.17273
217.28	-0.0377	-0.05809	-0.04928	-0.03941	-0.04451	-0.03499	0.0428	0.1736
219.066	-0.03815	-0.05663	-0.04913	-0.03614	-0.04213	-0.03234	0.0442	0.17348
220.851	-0.0373	-0.05571	-0.05	-0.03951	-0.04198	-0.02797	0.0412	0.17216
222.637	-0.03959	-0.05585	-0.04962	-0.04081	-0.04443	-0.02665	0.04211	0.17186
224.422	-0.03889	-0.05453	-0.04935	-0.04181	-0.04199	-0.02543	0.0412	0.17309
226.207	-0.03534	-0.05413	-0.05116	-0.04165	-0.04074	-0.02503	0.04329	0.17415
227.991	-0.03045	-0.05348	-0.04939	-0.04013	-0.0396	-0.02222	0.04236	0.17316
229.776	-0.02538	-0.05146	-0.04708	-0.03611	-0.03622	-0.01692	0.04494	0.17617
231.56	-0.02286	-0.04988	-0.04655	-0.03663	-0.03573	-0.01581	0.04485	0.1781
233.344	-0.02405	-0.05062	-0.0479	-0.03493	-0.03345	-0.0179	0.04543	0.1772
235.128	-0.02195	-0.04935	-0.04881	-0.03271	-0.03111	-0.01723	0.04579	0.1793
236.911	-0.01993	-0.04716	-0.0483	-0.03172	-0.03123	-0.01691	0.04849	0.17986
238.694	-0.02073	-0.0472	-0.0477	-0.03123	-0.02996	-0.01806	0.0478	0.1817
240.477	-0.02445	-0.04861	-0.048	-0.03449	-0.02893	-0.01785	0.04837	0.18488
242.26	-0.02451	-0.04655	-0.04911	-0.03639	-0.02932	-0.01929	0.05014	0.18516
244.043	-0.02504	-0.04685	-0.048	-0.03706	-0.02939	-0.01741	0.05182	0.18554
245.825	-0.02324	-0.04563	-0.04468	-0.03665	-0.02895	-0.01729	0.05385	0.18429
247.607	-0.02067	-0.043	-0.0412	-0.03577	-0.02567	-0.01476	0.05427	0.18465
249.389	-0.02329	-0.04404	-0.04217	-0.03498	-0.02344	-0.01297	0.05227	0.18183
251.17	-0.0224	-0.04142	-0.04333	-0.03491	-0.0244	-0.01116	0.05165	0.17843
252.952	-0.02057	-0.03933	-0.0422	-0.03069	-0.02321	-0.01008	0.05202	0.17397
254.733	-0.02073	-0.03941	-0.04162	-0.03191	-0.02094	-0.00763	0.05105	0.17165
256.513	-0.02151	-0.03765	-0.04343	-0.03151	-0.02058	-0.00745	0.05154	0.17205
258.294	-0.02299	-0.03851	-0.04586	-0.03145	-0.01971	-0.00529	0.05359	0.17436
260.074	-0.02368	-0.03891	-0.04695	-0.02963	-0.02004	-0.00446	0.05565	0.17664
261.854	-0.02122	-0.03668	-0.04427	-0.02652	-0.01852	-6.70769E-4	0.0584	0.18122
263.634	-0.02128	-0.03821	-0.04139	-0.02486	-0.01589	9.74498E-4	0.06008	0.1865
265.414	-0.02256	-0.03772	-0.04075	-0.0251	-0.01737	0.00255	0.06326	0.19555
267.193	-0.02267	-0.03859	-0.04133	-0.02366	-0.01827	0.00392	0.06645	0.20404
268.972	-0.02107	-0.04005	-0.04105	-0.02246	-0.01618	0.00469	0.06907	0.21257
270.751	-0.01941	-0.03806	-0.03768	-0.02035	-0.01405	0.00737	0.07401	0.22471
272.529	-0.02149	-0.04094	-0.03984	-0.02193	-0.0143	0.00742	0.07683	0.23631
274.307	-0.02279	-0.04239	-0.04095	-0.02432	-0.01542	0.00778	0.08203	0.25067
276.086	-0.02216	-0.04114	-0.04046	-0.02567	-0.0143	0.01049	0.08957	0.26784
277.863	-0.02087	-0.04022	-0.04103	-0.02476	-0.01088	0.01405	0.09732	0.28795
279.641	-0.02276	-0.041	-0.04024	-0.02506	-0.01049	0.01638	0.10531	0.30812
281.418	-0.02357	-0.04037	-0.03966	-0.02471	-0.0098	0.01961	0.11497	0.33221
283.195	-0.0226	-0.03983	-0.04033	-0.02275	-0.00871	0.02215	0.12498	0.35752
284.972	-0.02174	-0.0377	-0.03808	-0.0215	-0.00665	0.02564	0.13515	0.38121
286.748	-0.02125	-0.03721	-0.03812	-0.02041	-0.0061	0.02608	0.14067	0.3986
288.524	-0.02105	-0.0364	-0.03805	-0.01899	-0.00416	0.02594	0.1428	0.41318
290.3	-0.0215	-0.03646	-0.03801	-0.01878	-0.00449	0.026	0.14355	0.41904
292.076	-0.02128	-0.03664	-0.0385	-0.01886	-0.00455	0.02516	0.13894	0.41783
293.852	-0.02219	-0.03677	-0.03863	-0.01964	-0.00557	0.02207	0.13133	0.40413
295.627	-0.02216	-0.03758	-0.03974	-0.02075	-0.00642	0.01829	0.12107	0.38181
297.402	-0.02229	-0.0379	-0.04204	-0.02132	-0.00711	0.01625	0.10805	0.35573
299.176	-0.02162	-0.03913	-0.0421	-0.02184	-0.00697	0.01461	0.09596	0.32696
300.951	-0.02235	-0.04002	-0.04328	-0.02201	-0.00804	0.01193	0.08481	0.29586
302.725	-0.02201	-0.03932	-0.0426	-0.02175	-0.00823	0.00928	0.07269	0.26316
304.499	-0.02218	-0.03921	-0.04245	-0.02129	-0.00762	0.0071	0.06236	0.23309
306.272	-0.02128	-0.03825	-0.04204	-0.0195	-0.00628	0.0072	0.0537	0.20867
308.046	-0.02118	-0.03817	-0.04161	-0.01979	-0.00714	0.00628	0.04565	0.1877
309.819	-0.02145	-0.03839	-0.04111	-0.01963	-0.00751	0.00488	0.03971	0.16936
311.591	-0.02261	-0.03773	-0.04156	-0.01977	-0.00833	0.00337	0.03419	0.15477
313.364	-0.0221	-0.0368	-0.04053	-0.01945	-0.00851	0.00324	0.03032	0.14414
315.136	-0.02235	-0.03793	-0.04139	-0.01958	-0.0089	0.00312	0.02706	0.13627
316.908	-0.0222	-0.03759	-0.04292	-0.01987	-0.01005	0.0024	0.02493	0.13052
318.68	-0.02247	-0.03878	-0.04364	-0.02085	-0.01118	0.00141	0.02247	0.12441
320.451	-0.02255	-0.03923	-0.04402	-0.02126	-0.01132	6.25715E-4	0.02036	0.11897
322.223	-0.02254	-0.03822	-0.04373	-0.02012	-0.0112	4.98581E-5	0.01848	0.1148
323.994	-0.0217	-0.03787	-0.0435	-0.0191	-0.01028	4.93969E-4	0.01728	0.11125
325.764	-0.02234	-0.03806	-0.04429	-0.01922	-0.01065	1.77771E-4	0.01509	0.10601
327.535	-0.02263	-0.0386	-0.04474	-0.01955	-0.01125	-8.33527E-4	0.01198	0.09968
329.305	-0.02257	-0.03833	-0.04435	-0.01927	-0.01119	-0.00121	0.00873	0.09313
331.074	-0.02253	-0.03767	-0.04428	-0.01878	-0.01098	-0.00198	0.0063	0.08628
332.844	-0.02231	-0.03649	-0.044	-0.01766	-0.01078	-0.00229	0.00329	0.07995
334.613	-0.02167	-0.03645	-0.04344	-0.01771	-0.01095	-0.0024	6.23435E-4	0.07294
336.382	-0.02125	-0.03624	-0.04325	-0.01754	-0.01159	-0.00328	-0.00227	0.06531
338.151	-0.02069	-0.03646	-0.04314	-0.01767	-0.01208	-0.00411	-0.00529	0.05793
339.919	-0.02008	-0.03531	-0.0432	-0.01651	-0.01162	-0.00442	-0.00733	0.05194
341.688	-0.0203	-0.03566	-0.04307	-0.01706	-0.01267	-0.00512	-0.00936	0.04579
343.455	-0.01993	-0.03586	-0.04289	-0.01696	-0.01368	-0.00569	-0.01174	0.04001
345.223	-0.02009	-0.03673	-0.04253	-0.01727	-0.01389	-0.00627	-0.01364	0.03418
346.99	-0.02021	-0.037	-0.04281	-0.01751	-0.01471	-0.007	-0.01552	0.02932
348.757	-0.02073	-0.03764	-0.04323	-0.01796	-0.01534	-0.00775	-0.01712	0.02534
350.524	-0.02132	-0.03772	-0.04294	-0.01803	-0.01589	-0.00882	-0.01879	0.0215
352.291	-0.0213	-0.03807	-0.0422	-0.01842	-0.01641	-0.00961	-0.01963	0.01836
354.057	-0.02106	-0.03819	-0.04201	-0.01773	-0.0164	-0.00928	-0.02049	0.01551
355.823	-0.02125	-0.03808	-0.04265	-0.01827	-0.01637	-0.01003	-0.02148	0.01299
357.588	-0.02127	-0.03762	-0.04297	-0.018	-0.01663	-0.01033	-0.02177	0.01142
359.354	-0.02027	-0.03709	-0.04256	-0.01757	-0.01649	-0.01024	-0.0224	0.00975
361.119	-0.02005	-0.03705	-0.0429	-0.01751	-0.01692	-0.01052	-0.02326	0.00831
362.884	-0.0196	-0.03696	-0.04299	-0.01717	-0.01725	-0.01031	-0.02345	0.00749
364.648	-0.01958	-0.03632	-0.04286	-0.01677	-0.01698	-0.00989	-0.0235	0.00659
366.412	-0.01906	-0.03576	-0.04273	-0.01678	-0.01681	-0.01036	-0.02369	0.00608
368.176	-0.01867	-0.03513	-0.0417	-0.01572	-0.01652	-0.00958	-0.02344	0.00593
369.94	-0.01881	-0.03555	-0.04151	-0.01619	-0.01675	-0.0099	-0.02365	0.00534
371.703	-0.019	-0.03579	-0.04154	-0.01614	-0.01656	-0.00973	-0.02314	0.0049
373.466	-0.0187	-0.03537	-0.04087	-0.01567	-0.01635	-0.00958	-0.02261	0.00465
375.229	-0.01821	-0.03533	-0.04045	-0.01545	-0.01651	-0.00957	-0.02246	0.00449
376.992	-0.01783	-0.03579	-0.04036	-0.01528	-0.01707	-0.0097	-0.02243	0.00463
378.754	-0.01795	-0.0359	-0.03968	-0.01514	-0.01683	-0.00942	-0.02186	0.00462
380.516	-0.01791	-0.03604	-0.04004	-0.01572	-0.0174	-0.00979	-0.02181	0.00461
382.277	-0.01775	-0.03562	-0.03973	-0.01549	-0.01741	-0.00951	-0.02203	0.00424
384.039	-0.01799	-0.03558	-0.03985	-0.01567	-0.01822	-0.01041	-0.02248	0.00443
385.8	-0.01806	-0.0351	-0.03992	-0.01612	-0.01793	-0.0104	-0.02226	0.00444
387.56	-0.0179	-0.03446	-0.03981	-0.01567	-0.01759	-0.01002	-0.02158	0.0047
389.321	-0.01836	-0.03423	-0.03966	-0.01603	-0.01756	-0.01037	-0.02185	0.00405
391.081	-0.01775	-0.03401	-0.03949	-0.01592	-0.01744	-0.01043	-0.02224	0.00403
392.841	-0.0174	-0.03413	-0.03963	-0.01565	-0.01768	-0.01064	-0.02246	0.00333
394.6	-0.01694	-0.03379	-0.03969	-0.01513	-0.01783	-0.01043	-0.02213	0.00336
396.36	-0.01684	-0.03369	-0.03965	-0.01481	-0.01761	-0.01017	-0.02203	0.00268
398.119	-0.01642	-0.03368	-0.0394	-0.01442	-0.01779	-0.0097	-0.02205	0.00221
399.877	-0.01641	-0.03381	-0.03912	-0.0146	-0.01752	-0.01012	-0.02265	9.82792E-4
401.636	-0.01644	-0.03384	-0.03899	-0.01482	-0.01769	-0.01044	-0.02302	-2.67796E-4
403.394	-0.01692	-0.03399	-0.03961	-0.01519	-0.0186	-0.01102	-0.02364	-0.00177
405.151	-0.01718	-0.03408	-0.03949	-0.01515	-0.01872	-0.01117	-0.0241	-0.00289
406.909	-0.01727	-0.0343	-0.03943	-0.01557	-0.01882	-0.01136	-0.02454	-0.00423
408.666	-0.01746	-0.0343	-0.03913	-0.01563	-0.01898	-0.01154	-0.02513	-0.0055
410.423	-0.01821	-0.03491	-0.0393	-0.01601	-0.01936	-0.01232	-0.02569	-0.0072
412.179	-0.01807	-0.03509	-0.03963	-0.01618	-0.0198	-0.01257	-0.02593	-0.00828
413.936	-0.01757	-0.0346	-0.03977	-0.01595	-0.01967	-0.01229	-0.02562	-0.0087
415.692	-0.0173	-0.03408	-0.03914	-0.01533	-0.01921	-0.01175	-0.02481	-0.00887
417.447	-0.01716	-0.03402	-0.03902	-0.01548	-0.01924	-0.01169	-0.02427	-0.00909
419.203	-0.01713	-0.03384	-0.0387	-0.01512	-0.0186	-0.01165	-0.02371	-0.00883
420.958	-0.01672	-0.03368	-0.03881	-0.01512	-0.01868	-0.01148	-0.02346	-0.0086
422.712	-0.01607	-0.03306	-0.03843	-0.01464	-0.01797	-0.011	-0.02302	-0.008
424.467	-0.01621	-0.033	-0.03817	-0.01456	-0.01788	-0.01113	-0.02263	-0.00757
426.221	-0.01644	-0.0334	-0.03783	-0.01489	-0.01799	-0.01111	-0.02263	-0.00728
427.975	-0.01649	-0.03397	-0.03785	-0.01538	-0.01781	-0.01126	-0.02284	-0.00713
429.728	-0.01629	-0.03349	-0.03745	-0.01502	-0.01772	-0.01101	-0.02222	-0.00605
431.481	-0.01664	-0.03374	-0.03775	-0.01534	-0.0185	-0.01122	-0.02255	-0.0059
433.234	-0.01697	-0.03385	-0.03742	-0.01497	-0.01858	-0.01112	-0.02164	-0.00525
434.987	-0.01699	-0.03401	-0.03697	-0.0151	-0.01911	-0.01124	-0.02094	-0.00453
436.739	-0.01714	-0.03396	-0.03704	-0.01499	-0.01887	-0.01084	-0.02071	-0.00419
438.491	-0.01699	-0.0336	-0.03688	-0.01465	-0.01882	-0.01065	-0.01999	-0.00354
440.243	-0.01639	-0.03313	-0.03669	-0.01412	-0.01889	-0.01032	-0.01931	-0.00271
441.994	-0.01651	-0.03323	-0.03644	-0.01385	-0.01826	-0.01019	-0.01918	-0.00229
443.745	-0.01544	-0.03256	-0.03547	-0.01351	-0.01733	-0.00957	-0.01782	-0.0011
445.496	-0.01474	-0.03209	-0.03536	-0.01335	-0.01684	-0.00913	-0.01717	-4.02412E-4
447.246	-0.01447	-0.03181	-0.03541	-0.01344	-0.01639	-0.00908	-0.01658	7.22935E-4
448.996	-0.01387	-0.03127	-0.03479	-0.01332	-0.01636	-0.0084	-0.01561	0.00217
450.746	-0.01371	-0.0309	-0.0345	-0.01308	-0.01647	-0.00836	-0.01453	0.00369
452.495	-0.01384	-0.03076	-0.03445	-0.01314	-0.01646	-0.00821	-0.01423	0.00465
454.244	-0.01379	-0.03077	-0.03466	-0.01346	-0.01652	-0.00805	-0.01371	0.00541
455.993	-0.01388	-0.03132	-0.03542	-0.01409	-0.01691	-0.00814	-0.01357	0.00566
457.742	-0.01388	-0.03078	-0.03495	-0.01417	-0.01653	-0.00742	-0.01278	0.00664
459.49	-0.01467	-0.0314	-0.03534	-0.01486	-0.01703	-0.00772	-0.01278	0.00627
461.238	-0.01464	-0.03121	-0.0353	-0.01485	-0.01704	-0.00758	-0.01207	0.00705
462.985	-0.01475	-0.03173	-0.03572	-0.01537	-0.01647	-0.00747	-0.01179	0.00746
464.732	-0.01473	-0.03215	-0.03555	-0.01541	-0.01638	-0.00784	-0.01086	0.00805
466.479	-0.01446	-0.03221	-0.03521	-0.01541	-0.0165	-0.00785	-0.01004	0.00917
468.226	-0.01474	-0.03215	-0.03501	-0.01507	-0.01641	-0.00774	-0.00919	0.01065
469.972	-0.01509	-0.03296	-0.0355	-0.01508	-0.01695	-0.00848	-0.00954	0.01115
471.718	-0.01438	-0.03205	-0.03525	-0.01467	-0.01678	-0.00802	-0.00817	0.01282
473.463	-0.01467	-0.0329	-0.03572	-0.01499	-0.01683	-0.00841	-0.00817	0.01357
475.209	-0.01491	-0.03264	-0.03547	-0.01437	-0.01716	-0.00783	-0.00743	0.01414
476.954	-0.01461	-0.03246	-0.03578	-0.01417	-0.01684	-0.00731	-0.00711	0.01453
478.698	-0.01488	-0.03218	-0.03592	-0.01423	-0.01661	-0.00654	-0.00681	0.01502
480.442	-0.01479	-0.03182	-0.0357	-0.01421	-0.01627	-0.00656	-0.00633	0.01504
482.186	-0.01458	-0.03164	-0.03535	-0.01449	-0.01609	-0.00591	-0.00545	0.01609
483.93	-0.01434	-0.03132	-0.03445	-0.01393	-0.01539	-0.00525	-0.00526	0.01738
485.673	-0.01387	-0.03057	-0.03372	-0.01293	-0.01483	-0.00443	-0.00439	0.01885
487.416	-0.01352	-0.03049	-0.03317	-0.01279	-0.01449	-0.00432	-0.00375	0.02004
489.159	-0.01379	-0.03011	-0.0327	-0.0129	-0.01413	-0.00386	-0.00327	0.0216
490.901	-0.01305	-0.02989	-0.03236	-0.01276	-0.01402	-0.00363	-0.00265	0.02278
492.643	-0.01292	-0.03033	-0.03219	-0.01285	-0.01407	-0.00333	-0.00201	0.02485
494.385	-0.01268	-0.02944	-0.03209	-0.01217	-0.0137	-0.00308	-0.0014	0.02621
496.126	-0.01322	-0.02972	-0.03283	-0.01287	-0.01395	-0.00308	-9.81877E-4	0.02662
497.867	-0.01367	-0.02991	-0.03393	-0.01408	-0.01435	-0.00392	-8.94354E-4	0.02649
499.608	-0.01336	-0.02979	-0.03463	-0.01465	-0.01431	-0.00407	-8.8406E-4	0.02742
501.348	-0.01374	-0.03082	-0.0349	-0.01539	-0.01525	-0.00495	-0.00137	0.02681
503.088	-0.01374	-0.0302	-0.03493	-0.01518	-0.01508	-0.00522	-6.19183E-4	0.02778
504.828	-0.01395	-0.02976	-0.03467	-0.01574	-0.01576	-0.00565	-7.26435E-4	0.0278
506.567	-0.0144	-0.03096	-0.03499	-0.01696	-0.01646	-0.00684	-5.7586E-4	0.0274
508.306	-0.01441	-0.03117	-0.03502	-0.01729	-0.01699	-0.00758	-4.12488E-4	0.02747
510.045	-0.01404	-0.03132	-0.03467	-0.01655	-0.01709	-0.00729	-4.54131E-4	0.02784
511.783	-0.01445	-0.03189	-0.03451	-0.01665	-0.01739	-0.00739	-6.7645E-4	0.02764
513.521	-0.01449	-0.03096	-0.03442	-0.01595	-0.01721	-0.00694	1.27029E-4	0.02829
515.258	-0.01516	-0.03187	-0.03464	-0.01666	-0.01801	-0.00669	2.12619E-4	0.02864
516.996	-0.01517	-0.0328	-0.03506	-0.01666	-0.01799	-0.00658	3.17602E-4	0.02917
518.733	-0.01495	-0.03266	-0.03494	-0.01604	-0.01749	-0.00561	5.76087E-4	0.03042
520.469	-0.01494	-0.03316	-0.03513	-0.01597	-0.01733	-0.00535	0.00115	0.03129
522.205	-0.01555	-0.03357	-0.03594	-0.01743	-0.01816	-0.00592	0.00197	0.03125
523.941	-0.01562	-0.03339	-0.03644	-0.01784	-0.01891	-0.00695	0.00235	0.03245
525.677	-0.01546	-0.0341	-0.0368	-0.01871	-0.01905	-0.00747	0.00259	0.03377
527.412	-0.01547	-0.03408	-0.03689	-0.01951	-0.0201	-0.00791	0.00283	0.03482
529.147	-0.01553	-0.03355	-0.03671	-0.01914	-0.01996	-0.00791	0.00401	0.03696
530.882	-0.01546	-0.03316	-0.03639	-0.01916	-0.01992	-0.00796	0.00512	0.03854
532.616	-0.01567	-0.03346	-0.03625	-0.01919	-0.02042	-0.00849	0.00557	0.04015
534.35	-0.0152	-0.0332	-0.03567	-0.01873	-0.01977	-0.00805	0.00647	0.04289
536.083	-0.01539	-0.0331	-0.03544	-0.01851	-0.01948	-0.00786	0.00746	0.04507
537.816	-0.01533	-0.03277	-0.03503	-0.01833	-0.01938	-0.00736	0.00896	0.04838
539.549	-0.01537	-0.03288	-0.03489	-0.01792	-0.01889	-0.00737	0.01063	0.0519
541.282	-0.015	-0.03279	-0.03479	-0.01806	-0.0189	-0.0071	0.01221	0.05581
543.014	-0.01499	-0.03266	-0.03462	-0.01782	-0.01904	-0.00684	0.01386	0.06063
544.745	-0.0149	-0.03286	-0.03477	-0.01797	-0.01916	-0.00656	0.01566	0.06567
546.477	-0.01507	-0.03291	-0.03489	-0.01834	-0.01966	-0.00684	0.01722	0.07045
548.208	-0.01553	-0.03302	-0.03492	-0.01863	-0.02019	-0.00668	0.01942	0.07578
549.939	-0.01598	-0.03333	-0.03522	-0.01897	-0.02039	-0.00677	0.02152	0.08141
551.669	-0.01601	-0.03328	-0.0353	-0.01883	-0.02022	-0.00632	0.02371	0.08713
553.399	-0.01666	-0.03368	-0.03549	-0.01907	-0.02029	-0.0063	0.02605	0.09294
555.129	-0.01698	-0.03384	-0.03566	-0.01959	-0.02039	-0.00663	0.02851	0.09897
556.858	-0.01714	-0.03372	-0.03552	-0.01992	-0.02018	-0.0062	0.03123	0.10551
558.587	-0.01703	-0.03336	-0.03532	-0.01947	-0.01961	-0.0056	0.03414	0.11232
560.315	-0.01695	-0.03349	-0.03533	-0.01934	-0.01953	-0.00541	0.03686	0.11886
562.044	-0.0163	-0.03313	-0.03487	-0.0189	-0.01927	-0.00488	0.03993	0.12577
563.772	-0.01645	-0.03318	-0.03483	-0.01917	-0.01925	-0.00486	0.0429	0.1328
565.499	-0.01601	-0.03295	-0.03437	-0.01889	-0.01896	-0.0041	0.04627	0.14063
567.226	-0.01589	-0.03274	-0.03411	-0.01852	-0.01869	-0.0033	0.04977	0.14853
568.953	-0.01527	-0.03197	-0.03356	-0.01771	-0.01811	-0.00234	0.05365	0.15696
570.679	-0.01507	-0.03147	-0.03298	-0.0176	-0.01782	-0.00141	0.05757	0.16584
572.406	-0.01505	-0.031	-0.03254	-0.01748	-0.01745	-6.82254E-4	0.0614	0.17509
574.131	-0.01508	-0.03068	-0.03225	-0.01729	-0.01708	7.79229E-5	0.06539	0.18471
575.857	-0.01485	-0.03031	-0.032	-0.01705	-0.01688	9.66775E-4	0.06975	0.19528
577.582	-0.01471	-0.02995	-0.03178	-0.01679	-0.01662	0.00165	0.07435	0.20677
579.306	-0.0145	-0.02971	-0.03164	-0.01674	-0.01644	0.00234	0.07919	0.21936
581.031	-0.01453	-0.02986	-0.03152	-0.01703	-0.01638	0.00311	0.08447	0.23336
582.754	-0.01439	-0.03006	-0.0317	-0.01717	-0.01638	0.00372	0.08975	0.24816
584.478	-0.01401	-0.03009	-0.03177	-0.01714	-0.01614	0.00464	0.09548	0.26441
586.201	-0.0135	-0.02978	-0.03143	-0.01696	-0.0157	0.00571	0.10181	0.28232
587.924	-0.0133	-0.02962	-0.03113	-0.01669	-0.01532	0.00689	0.10817	0.30126
589.646	-0.01321	-0.02956	-0.03096	-0.01671	-0.01515	0.00795	0.11464	0.321
591.369	-0.01323	-0.02957	-0.03076	-0.01672	-0.01483	0.00884	0.12123	0.34139
593.09	-0.01294	-0.02911	-0.03034	-0.01632	-0.0144	0.00991	0.12779	0.36191
594.812	-0.01285	-0.02868	-0.03005	-0.01602	-0.01387	0.01095	0.13436	0.38297
596.533	-0.01253	-0.02822	-0.02955	-0.0154	-0.01337	0.01225	0.14123	0.40431
598.253	-0.01266	-0.02808	-0.02952	-0.01524	-0.01334	0.0131	0.14744	0.42503
599.974	-0.0128	-0.02786	-0.02932	-0.01522	-0.01309	0.01398	0.15351	0.44513
601.693	-0.01245	-0.02748	-0.02905	-0.01485	-0.0125	0.01525	0.15972	0.46506
603.413	-0.01237	-0.02715	-0.02882	-0.01464	-0.01244	0.01635	0.16545	0.48389
605.132	-0.01234	-0.02737	-0.02898	-0.01456	-0.01239	0.01708	0.17083	0.50091
606.851	-0.01237	-0.02736	-0.02893	-0.01446	-0.01242	0.01794	0.17593	0.51624
608.569	-0.01236	-0.02749	-0.02884	-0.01465	-0.01241	0.01863	0.18047	0.52904
610.287	-0.01228	-0.02751	-0.02874	-0.01469	-0.01232	0.01936	0.18474	0.53989
612.005	-0.01223	-0.02774	-0.02888	-0.01486	-0.0127	0.01971	0.18852	0.54853
613.722	-0.01215	-0.02767	-0.0287	-0.01481	-0.01271	0.0203	0.19231	0.55509
615.439	-0.01192	-0.02759	-0.02858	-0.01471	-0.01245	0.02094	0.19595	0.55987
617.156	-0.012	-0.02761	-0.02854	-0.01487	-0.01273	0.02143	0.19934	0.56373
618.872	-0.01189	-0.0277	-0.0284	-0.01512	-0.01306	0.02169	0.20276	0.56664
620.587	-0.01194	-0.02772	-0.02832	-0.01524	-0.01344	0.02208	0.2062	0.5699
622.303	-0.01208	-0.02782	-0.02831	-0.01536	-0.01363	0.02249	0.20994	0.5734
624.018	-0.01193	-0.02772	-0.02823	-0.01512	-0.01388	0.02294	0.21398	0.57771
625.733	-0.01235	-0.02816	-0.02848	-0.01556	-0.01471	0.02279	0.21764	0.58362
627.447	-0.01255	-0.02821	-0.02867	-0.01576	-0.01519	0.02307	0.22207	0.5915
629.161	-0.01274	-0.02822	-0.02873	-0.01568	-0.01554	0.02342	0.22677	0.60108
630.874	-0.01249	-0.02804	-0.02857	-0.01535	-0.01542	0.02403	0.2323	0.61359
632.587	-0.01278	-0.02805	-0.02896	-0.01559	-0.01597	0.02402	0.23749	0.62782
634.3	-0.01264	-0.02791	-0.02893	-0.01539	-0.0163	0.02432	0.24352	0.64523
636.012	-0.01277	-0.02807	-0.02915	-0.01548	-0.01657	0.02455	0.24951	0.66441
637.724	-0.01261	-0.02786	-0.0291	-0.01546	-0.01678	0.02456	0.25586	0.68549
639.436	-0.01264	-0.02806	-0.02887	-0.01539	-0.0172	0.02448	0.26213	0.70875
641.147	-0.01247	-0.02793	-0.02858	-0.01523	-0.01728	0.02466	0.26873	0.73384
642.858	-0.01266	-0.02813	-0.02895	-0.01544	-0.01791	0.02431	0.27473	0.75956
644.568	-0.01261	-0.02819	-0.02883	-0.01536	-0.01818	0.024	0.28085	0.78673
646.278	-0.01265	-0.02839	-0.02877	-0.01547	-0.01841	0.02356	0.28628	0.81391
647.988	-0.01257	-0.02819	-0.0287	-0.01551	-0.0187	0.02305	0.29116	0.84151
649.697	-0.0127	-0.02826	-0.02882	-0.01543	-0.01883	0.02253	0.29532	0.86794
651.406	-0.01283	-0.02834	-0.02894	-0.0155	-0.01902	0.02168	0.29816	0.89263
653.115	-0.01288	-0.0283	-0.02923	-0.01578	-0.01932	0.02057	0.2995	0.91518
654.823	-0.01317	-0.02827	-0.02918	-0.01581	-0.01953	0.01953	0.30006	0.93567
656.531	-0.01334	-0.02846	-0.02942	-0.01601	-0.01981	0.01855	0.29979	0.95386
658.238	-0.01371	-0.02854	-0.02974	-0.01641	-0.02019	0.01724	0.29802	0.96895
659.945	-0.01367	-0.02841	-0.02962	-0.01642	-0.02039	0.01602	0.29548	0.98136
661.651	-0.01357	-0.02828	-0.02957	-0.01648	-0.02064	0.01462	0.29129	0.98948
663.358	-0.01362	-0.02822	-0.02966	-0.01672	-0.02114	0.01286	0.28543	0.99107
665.063	-0.01382	-0.02839	-0.02975	-0.017	-0.02156	0.01104	0.27779	0.98554
666.769	-0.0138	-0.0285	-0.02965	-0.0172	-0.02186	0.00914	0.26801	0.97163
668.474	-0.01375	-0.02838	-0.02948	-0.0172	-0.02197	0.00706	0.25579	0.9471
670.178	-0.01343	-0.02803	-0.02927	-0.01713	-0.0221	0.00474	0.24135	0.91144
671.882	-0.01368	-0.02814	-0.02929	-0.01743	-0.02224	0.00227	0.22449	0.86459
673.586	-0.01367	-0.0279	-0.02925	-0.01753	-0.02225	-1.29617E-4	0.2057	0.80776
675.29	-0.01373	-0.02778	-0.02915	-0.01759	-0.02229	-0.00235	0.18579	0.74439
676.993	-0.01389	-0.02777	-0.02916	-0.01778	-0.02254	-0.00484	0.1656	0.67743
678.695	-0.01427	-0.02805	-0.02955	-0.01819	-0.02292	-0.00725	0.14594	0.60964
680.397	-0.01432	-0.02814	-0.02964	-0.0185	-0.02315	-0.00969	0.12663	0.5423
682.099	-0.01449	-0.02839	-0.02969	-0.01873	-0.0232	-0.01163	0.10806	0.47618
683.801	-0.01454	-0.02849	-0.02984	-0.01907	-0.02348	-0.01355	0.09008	0.41246
685.502	-0.01488	-0.02879	-0.03	-0.01936	-0.02375	-0.01531	0.07349	0.35245
687.202	-0.01479	-0.02866	-0.02991	-0.01937	-0.02397	-0.01693	0.05846	0.29692
688.902	-0.01483	-0.02866	-0.02998	-0.01956	-0.02405	-0.01837	0.04482	0.2469
690.602	-0.01444	-0.02795	-0.0295	-0.01924	-0.0238	-0.01938	0.03319	0.20496
692.302	-0.01457	-0.02783	-0.02945	-0.01905	-0.02402	-0.02018	0.02341	0.16927
694.001	-0.01484	-0.02783	-0.02951	-0.01921	-0.0243	-0.02114	0.01518	0.13891
695.699	-0.01501	-0.02789	-0.02946	-0.01937	-0.02447	-0.02207	0.00829	0.11327
697.397	-0.01517	-0.02804	-0.02963	-0.01967	-0.02471	-0.0229	0.00226	0.09173
699.095	-0.01533	-0.02817	-0.02975	-0.01976	-0.02452	-0.02338	-0.00268	0.07393
700.792	-0.01542	-0.02826	-0.02983	-0.01966	-0.0246	-0.02387	-0.00675	0.05907
702.489	-0.01572	-0.02889	-0.03009	-0.0199	-0.02489	-0.02448	-0.01025	0.04631
704.186	-0.01575	-0.02903	-0.03023	-0.02014	-0.02479	-0.02503	-0.01319	0.03592
705.882	-0.01551	-0.02886	-0.03001	-0.01994	-0.02471	-0.02505	-0.01557	0.02765
707.578	-0.01543	-0.02885	-0.02998	-0.01979	-0.0246	-0.02519	-0.01754	0.02055
709.273	-0.01514	-0.02862	-0.02969	-0.01949	-0.02444	-0.02528	-0.01902	0.01481
710.968	-0.01512	-0.02885	-0.02996	-0.01964	-0.02474	-0.02565	-0.02065	0.00937
712.663	-0.01506	-0.02878	-0.02977	-0.01976	-0.02476	-0.026	-0.02207	0.00516
714.357	-0.01479	-0.02861	-0.02963	-0.01975	-0.02472	-0.02628	-0.02332	0.0015
716.05	-0.01458	-0.02831	-0.02923	-0.01949	-0.02451	-0.02604	-0.02381	-0.00132
717.744	-0.01453	-0.02834	-0.02925	-0.01951	-0.02438	-0.02627	-0.02459	-0.004
719.437	-0.01447	-0.02818	-0.02915	-0.01934	-0.0243	-0.02652	-0.02524	-0.00618
721.129	-0.01387	-0.02767	-0.02876	-0.01887	-0.02386	-0.02631	-0.02535	-0.0078
722.821	-0.01342	-0.02688	-0.02788	-0.01828	-0.02318	-0.02565	-0.02519	-0.00851
724.513	-0.01281	-0.02618	-0.02727	-0.01741	-0.02226	-0.02483	-0.02454	-0.00924
726.204	-0.01267	-0.02598	-0.02716	-0.01726	-0.02196	-0.02436	-0.02439	-0.00993
727.895	-0.01242	-0.02574	-0.02697	-0.01702	-0.02184	-0.02418	-0.02445	-0.01061
729.585	-0.01172	-0.02533	-0.02652	-0.01657	-0.02131	-0.02362	-0.02412	-0.01148
731.275	-0.0106	-0.02404	-0.02541	-0.01547	-0.02018	-0.02235	-0.02326	-0.01123
732.965	-0.01011	-0.02351	-0.02464	-0.01494	-0.01958	-0.02177	-0.02299	-0.01147
734.654	-0.00976	-0.02337	-0.02493	-0.01469	-0.0195	-0.0222	-0.02329	-0.01215
736.342	-0.00982	-0.02331	-0.02491	-0.0148	-0.01964	-0.02218	-0.0237	-0.0127
738.031	-0.00889	-0.02229	-0.02412	-0.01401	-0.01878	-0.0216	-0.02312	-0.01261
739.718	-0.0087	-0.0219	-0.02408	-0.01384	-0.01832	-0.02121	-0.02311	-0.01301
741.406	-0.00883	-0.02193	-0.02405	-0.01362	-0.01841	-0.02124	-0.02297	-0.01313
743.093	-0.00915	-0.02241	-0.02442	-0.01401	-0.01875	-0.02144	-0.02312	-0.01394
744.78	-0.00953	-0.02316	-0.02511	-0.01469	-0.01921	-0.02188	-0.02354	-0.01488
746.466	-0.00955	-0.023	-0.02482	-0.01497	-0.01926	-0.02142	-0.02336	-0.01522
748.151	-0.00938	-0.02319	-0.02465	-0.01496	-0.01932	-0.02148	-0.02336	-0.01552
749.837	-0.00982	-0.02343	-0.0249	-0.01537	-0.0196	-0.0218	-0.02363	-0.01614
751.522	-0.00953	-0.02314	-0.02425	-0.01491	-0.0193	-0.02145	-0.02347	-0.0159
753.206	-0.00963	-0.02288	-0.02436	-0.01505	-0.01935	-0.02169	-0.02401	-0.01637
754.89	-0.01011	-0.02325	-0.02492	-0.01561	-0.01984	-0.0225	-0.02492	-0.01716
756.574	-0.01025	-0.02298	-0.02486	-0.01549	-0.01992	-0.02264	-0.02511	-0.01731
758.257	-0.01005	-0.02311	-0.02472	-0.01537	-0.01967	-0.02272	-0.02522	-0.01761
759.94	-0.00992	-0.02279	-0.02456	-0.01521	-0.01963	-0.02261	-0.02513	-0.01796
761.622	-0.00959	-0.02257	-0.02444	-0.01478	-0.01937	-0.02238	-0.02491	-0.01812
763.304	-0.00977	-0.02287	-0.02466	-0.01515	-0.01955	-0.02264	-0.02511	-0.01879
764.986	-0.00921	-0.0226	-0.02391	-0.0146	-0.01897	-0.02212	-0.02472	-0.01842
766.667	-0.00831	-0.02204	-0.02312	-0.01365	-0.01828	-0.02136	-0.024	-0.01771
768.347	-0.00814	-0.02186	-0.02288	-0.01345	-0.01793	-0.02111	-0.02399	-0.0177
770.028	-0.00804	-0.02158	-0.02278	-0.01327	-0.01767	-0.02093	-0.0238	-0.0176
771.707	-0.00822	-0.02184	-0.02309	-0.01362	-0.01784	-0.0211	-0.02414	-0.01781
773.387	-0.00866	-0.02244	-0.02307	-0.01396	-0.01813	-0.02178	-0.0247	-0.01801
775.066	-0.00906	-0.02268	-0.02343	-0.01426	-0.01863	-0.02207	-0.02512	-0.01837
776.744	-0.00915	-0.02272	-0.02394	-0.01472	-0.01898	-0.02226	-0.0252	-0.01856
778.422	-0.00946	-0.02296	-0.02389	-0.01503	-0.01888	-0.02227	-0.02524	-0.01876
780.1	-0.00921	-0.02262	-0.02373	-0.01473	-0.01897	-0.02189	-0.02508	-0.01868
781.777	-0.00915	-0.02254	-0.02358	-0.01452	-0.01913	-0.02191	-0.02496	-0.01861
783.453	-0.00909	-0.02243	-0.02329	-0.01433	-0.01887	-0.02182	-0.02499	-0.01861
785.13	-0.00903	-0.02174	-0.02323	-0.0141	-0.01874	-0.02144	-0.02469	-0.01862
786.806	-0.00878	-0.02182	-0.02304	-0.01402	-0.01897	-0.02169	-0.02478	-0.01885
788.481	-0.00943	-0.02229	-0.02327	-0.01451	-0.01932	-0.02226	-0.02531	-0.01962
790.156	-0.01027	-0.02271	-0.02419	-0.0154	-0.02021	-0.02316	-0.02636	-0.02083
791.831	-0.01112	-0.02325	-0.02463	-0.01614	-0.02042	-0.02404	-0.02667	-0.02127
793.505	-0.01176	-0.02408	-0.02513	-0.01683	-0.02079	-0.02443	-0.02707	-0.02183
795.178	-0.01259	-0.02457	-0.0261	-0.01783	-0.02142	-0.02509	-0.02769	-0.02264
796.852	-0.0129	-0.02551	-0.02645	-0.01853	-0.02194	-0.02564	-0.02823	-0.02317
798.524	-0.01331	-0.02559	-0.0271	-0.0188	-0.02182	-0.0256	-0.02839	-0.02365
800.197	-0.01319	-0.02568	-0.02733	-0.01883	-0.02182	-0.02559	-0.02868	-0.0238
801.869	-0.0133	-0.02584	-0.02693	-0.01854	-0.02186	-0.02528	-0.02837	-0.02363
803.54	-0.0135	-0.02654	-0.02742	-0.01908	-0.02257	-0.02553	-0.02865	-0.02422
805.211	-0.01369	-0.02643	-0.02752	-0.01902	-0.0226	-0.02621	-0.02906	-0.02484
806.882	-0.01348	-0.02622	-0.02709	-0.01842	-0.02247	-0.02593	-0.02861	-0.02434
808.552	-0.01329	-0.02547	-0.02683	-0.01818	-0.0219	-0.02556	-0.02841	-0.02424
810.221	-0.01333	-0.02564	-0.02658	-0.0183	-0.02205	-0.02591	-0.02862	-0.02398
811.89	-0.01359	-0.02614	-0.02656	-0.01853	-0.02209	-0.02607	-0.02858	-0.02389
813.559	-0.0132	-0.02572	-0.02667	-0.01848	-0.02194	-0.02613	-0.02855	-0.02388
815.228	-0.01269	-0.02506	-0.02634	-0.01797	-0.02149	-0.02552	-0.02822	-0.02343
816.895	-0.01241	-0.02479	-0.02633	-0.01853	-0.02169	-0.02506	-0.02847	-0.02313
818.563	-0.0127	-0.02496	-0.02634	-0.0185	-0.02166	-0.02492	-0.02851	-0.02311
820.23	-0.01285	-0.0253	-0.02676	-0.01873	-0.02214	-0.0248	-0.02864	-0.02331
821.896	-0.01256	-0.02484	-0.02599	-0.01829	-0.02149	-0.024	-0.02772	-0.02249
823.562	-0.01172	-0.02376	-0.02539	-0.01717	-0.02078	-0.0233	-0.02646	-0.02186
825.228	-0.01103	-0.02342	-0.02482	-0.0165	-0.01989	-0.02298	-0.02607	-0.02126
826.893	-0.01047	-0.02276	-0.02379	-0.01553	-0.01871	-0.02246	-0.02546	-0.0207
828.558	-0.00989	-0.02248	-0.02295	-0.01454	-0.0179	-0.0221	-0.02458	-0.02035
830.222	-0.00899	-0.02197	-0.02246	-0.0143	-0.01767	-0.02164	-0.02401	-0.01997
831.886	-0.00774	-0.02059	-0.02101	-0.01308	-0.01654	-0.02104	-0.02309	-0.0192
833.549	-0.00728	-0.0199	-0.02081	-0.01276	-0.01625	-0.02076	-0.02315	-0.01942
835.212	-0.00742	-0.01942	-0.02053	-0.01289	-0.01597	-0.02068	-0.02347	-0.0192
836.875	-0.00788	-0.01938	-0.02085	-0.01346	-0.0165	-0.0206	-0.02327	-0.01942
838.537	-0.00776	-0.01922	-0.02082	-0.01347	-0.01679	-0.02057	-0.02329	-0.01925
840.198	-0.00751	-0.01869	-0.02027	-0.01339	-0.01639	-0.01998	-0.02309	-0.01835
841.859	-0.00711	-0.01815	-0.01979	-0.01265	-0.01572	-0.01988	-0.0225	-0.01826
843.52	-0.00739	-0.01859	-0.02009	-0.01315	-0.01571	-0.01989	-0.02264	-0.01831
845.18	-0.00673	-0.01827	-0.01979	-0.01243	-0.01496	-0.01972	-0.02237	-0.01816
846.84	-0.00631	-0.01777	-0.0188	-0.01183	-0.01459	-0.01927	-0.02176	-0.01759
848.499	-0.0061	-0.01753	-0.01794	-0.01117	-0.01372	-0.01859	-0.0212	-0.01697
850.158	-0.00493	-0.01689	-0.01748	-0.01066	-0.01295	-0.01796	-0.02047	-0.01636
851.816	-0.00501	-0.01708	-0.01742	-0.01067	-0.01294	-0.01802	-0.02028	-0.01661
853.474	-0.00413	-0.01659	-0.01695	-0.01028	-0.01222	-0.01721	-0.01995	-0.01613
855.131	-0.00362	-0.01613	-0.01614	-0.00932	-0.01148	-0.01634	-0.01905	-0.01543
856.788	-0.0034	-0.01628	-0.0156	-0.00906	-0.01153	-0.0159	-0.01857	-0.01468
858.445	-0.00307	-0.01661	-0.01587	-0.0088	-0.01154	-0.01579	-0.01846	-0.01464
860.101	-0.00298	-0.01633	-0.01587	-0.00871	-0.01198	-0.01578	-0.01877	-0.01418
861.756	-0.00328	-0.01609	-0.01529	-0.0085	-0.01139	-0.01511	-0.01818	-0.01416
863.411	-0.00338	-0.01596	-0.01507	-0.00838	-0.0113	-0.01468	-0.01803	-0.01402
865.066	-0.00352	-0.01552	-0.01496	-0.00791	-0.01112	-0.01458	-0.01737	-0.01344
866.72	-0.00339	-0.0153	-0.01526	-0.00825	-0.01191	-0.01464	-0.01756	-0.01348
868.374	-0.00373	-0.015	-0.01504	-0.00834	-0.0117	-0.01471	-0.01746	-0.01364
870.027	-0.00303	-0.01433	-0.01479	-0.0086	-0.01141	-0.01413	-0.01719	-0.01343
871.68	-0.00251	-0.014	-0.0145	-0.00847	-0.01075	-0.01412	-0.01694	-0.0135
873.332	-0.0022	-0.01353	-0.01449	-0.00828	-0.01091	-0.01432	-0.01701	-0.01336
874.984	-9.10271E-4	-0.0123	-0.01381	-0.00698	-0.00962	-0.01371	-0.01619	-0.0124
876.635	2.68998E-4	-0.01143	-0.01276	-0.00667	-0.00853	-0.01321	-0.01583	-0.0116
878.286	6.67781E-4	-0.01113	-0.01234	-0.00628	-0.00774	-0.01343	-0.01567	-0.01169
879.936	0.00137	-0.01052	-0.01198	-0.00574	-0.00736	-0.01293	-0.0155	-0.01129
881.586	0.00186	-0.01026	-0.01097	-0.00509	-0.00648	-0.01232	-0.01468	-0.01058
883.235	0.00211	-0.00993	-0.01051	-0.00415	-0.00577	-0.01176	-0.01385	-0.00998
884.884	0.00235	-0.00983	-0.01032	-0.00386	-0.00559	-0.01161	-0.01422	-0.00965
886.533	0.00161	-0.01038	-0.0112	-0.00473	-0.006	-0.01191	-0.01473	-0.01047
888.181	8.66981E-4	-0.01085	-0.01196	-0.00521	-0.0068	-0.01238	-0.01571	-0.0108
889.828	-2.26142E-6	-0.01105	-0.01215	-0.00563	-0.00711	-0.01246	-0.0157	-0.01058
891.475	1.51887E-4	-0.01059	-0.01196	-0.00544	-0.0067	-0.01185	-0.01483	-0.01001
893.122	1.75342E-4	-0.0108	-0.01227	-0.00534	-0.00711	-0.01237	-0.01539	-0.0104
894.768	5.9524E-4	-0.01014	-0.01157	-0.00468	-0.00692	-0.01142	-0.01446	-0.00936
896.414	6.73163E-4	-0.00988	-0.01129	-0.00445	-0.00666	-0.01103	-0.01363	-0.00898
898.059	0.00111	-0.00925	-0.00976	-0.00375	-0.00647	-0.01034	-0.01297	-0.0079
899.704	0.00184	-0.00911	-0.00917	-0.00299	-0.00581	-0.00947	-0.01193	-0.00774
901.348	0.00339	-0.00864	-0.00796	-0.00162	-0.00487	-0.0087	-0.01151	-0.00676
902.991	0.00401	-0.00851	-0.00747	-0.00117	-0.00455	-0.00839	-0.01113	-0.00637
904.635	0.00476	-0.00785	-0.00666	-8.4646E-4	-0.00357	-0.00774	-0.00995	-0.00581
906.277	0.00486	-0.00796	-0.00667	-0.00142	-0.00345	-0.0079	-0.01053	-0.00655
907.92	0.00526	-0.00772	-0.00649	-8.00962E-4	-0.00257	-0.00699	-0.00988	-0.00606
909.561	0.00673	-0.00677	-0.00577	4.05648E-4	-0.0018	-0.00608	-0.00892	-0.00533
911.203	0.00757	-0.00573	-0.0051	9.38275E-4	-0.00111	-0.00577	-0.00851	-0.00452
912.843	0.00889	-0.00404	-0.00422	0.0018	1.57522E-4	-0.00399	-0.00676	-0.00323
914.484	0.00939	-0.00312	-0.00358	0.00275	0.00131	-0.00362	-0.00617	-0.00196
916.124	0.01023	-0.00184	-0.00294	0.0035	0.00216	-0.00262	-0.00514	-7.10267E-4
917.763	0.01196	-4.12802E-4	-0.00163	0.00542	0.00398	-0.00136	-0.00332	0.00126
919.402	0.01372	0.00119	2.333E-4	0.00657	0.0053	-5.70054E-4	-0.00178	0.00233
921.04	0.01502	0.00246	0.00125	0.00814	0.00707	6.37642E-4	-4.11531E-4	0.00397
922.678	0.01688	0.00455	0.00373	0.01056	0.00979	0.00332	0.00213	0.00625
924.315	0.01867	0.00658	0.00599	0.01259	0.0116	0.00562	0.00432	0.00844
925.952	0.02096	0.00938	0.00801	0.01497	0.01388	0.00833	0.00705	0.01058
927.589	0.02409	0.01238	0.01081	0.01852	0.0167	0.01143	0.00965	0.01403
929.225	0.02713	0.01525	0.01376	0.0213	0.01923	0.01491	0.01298	0.01743
930.86	0.03037	0.01869	0.01673	0.02515	0.02251	0.01883	0.01625	0.02191
932.495	0.03267	0.0207	0.01989	0.02688	0.02457	0.0218	0.01948	0.0252
934.129	0.03443	0.0226	0.02197	0.02958	0.02633	0.02388	0.02224	0.02847
935.763	0.03646	0.0251	0.02442	0.03188	0.02912	0.02583	0.02501	0.03171
937.397	0.04006	0.02747	0.02752	0.03416	0.03186	0.02867	0.02829	0.03581
939.03	0.04271	0.03005	0.03125	0.03662	0.03575	0.03222	0.03327	0.04055
940.662	0.04496	0.0343	0.03461	0.03979	0.03848	0.03506	0.0373	0.0456
942.294	0.04954	0.03884	0.03785	0.04372	0.0425	0.03821	0.04123	0.04983
943.926	0.05731	0.04624	0.04392	0.05205	0.05184	0.04534	0.04832	0.05664
945.557	0.06659	0.05539	0.05206	0.05902	0.06021	0.05402	0.05649	0.0649
947.187	0.07739	0.0642	0.06224	0.06995	0.07027	0.06377	0.06653	0.07495
948.817	0.08675	0.07415	0.07319	0.08075	0.07978	0.07461	0.07675	0.08433
950.447	0.09946	0.08674	0.08547	0.0934	0.09168	0.08617	0.08738	0.09491
952.076	0.11017	0.09639	0.09699	0.10517	0.10282	0.09757	0.09752	0.10423
953.704	0.12094	0.10586	0.10762	0.11461	0.11336	0.10761	0.10751	0.11329
955.332	0.13114	0.11708	0.11865	0.12524	0.12353	0.11783	0.11833	0.1241
956.96	0.13902	0.12567	0.12611	0.13364	0.13212	0.12563	0.12608	0.13197
958.587	0.14547	0.13274	0.13254	0.14058	0.13844	0.13276	0.13306	0.13883
960.213	0.15161	0.13994	0.13851	0.14712	0.14543	0.13922	0.13942	0.1448
961.839	0.15524	0.14357	0.14202	0.15064	0.14914	0.14353	0.14326	0.14822
963.465	0.15967	0.14838	0.14633	0.15498	0.15302	0.14707	0.14711	0.15215
965.089	0.16294	0.15253	0.14951	0.15915	0.15688	0.15051	0.15048	0.15566
966.714	0.16558	0.15557	0.15293	0.16213	0.15959	0.15378	0.15268	0.15837
968.338	0.16833	0.15833	0.15589	0.1643	0.16177	0.15661	0.15523	0.16056
969.961	0.17112	0.16065	0.15865	0.16608	0.16436	0.15901	0.1572	0.16238
971.584	0.17288	0.16189	0.16156	0.16845	0.16646	0.16132	0.15914	0.16437
973.207	0.17411	0.16326	0.16292	0.16936	0.16815	0.16207	0.16033	0.16567
974.829	0.17426	0.16379	0.16301	0.16903	0.16823	0.16306	0.16046	0.16642
976.45	0.1732	0.16326	0.16301	0.16731	0.16719	0.16284	0.15999	0.16665
978.071	0.17181	0.1608	0.16054	0.16537	0.16528	0.16144	0.15861	0.16476
979.691	0.16981	0.15896	0.15852	0.16365	0.1641	0.1602	0.1575	0.16349
981.311	0.16696	0.15664	0.15599	0.16065	0.16215	0.15777	0.15437	0.16195
982.931	0.16507	0.15533	0.15367	0.15834	0.16028	0.15575	0.15257	0.16007
984.55	0.1641	0.15453	0.15213	0.15722	0.15897	0.15469	0.15125	0.15904
986.168	0.16242	0.15186	0.15038	0.15573	0.15757	0.15169	0.14924	0.15708
987.786	0.16097	0.1496	0.14834	0.1543	0.15528	0.15017	0.14834	0.1552
989.403	0.16006	0.14855	0.14721	0.15246	0.15386	0.14821	0.14645	0.15363
991.02	0.15873	0.14704	0.14521	0.15119	0.15129	0.14549	0.14439	0.1516
992.636	0.15706	0.14498	0.14311	0.14938	0.14878	0.14364	0.14274	0.14927
994.252	0.15417	0.14113	0.1403	0.14524	0.14436	0.13984	0.1392	0.14545
995.867	0.14984	0.14273	0.13186	0.14754	0.13677	0.1334	0.12957	0.14144
997.482	0.13719	0.13453	0.13043	0.13141	0.13201	0.13258	0.12535	0.1313
999.096	0.13573	0.12512	0.13329	0.12298	0.13302	0.12907	0.12611	0.13087
1000.172	0.13884	0.13586	0.12836	0.13312	0.13609	0.12827	0.12938	0.142