File: Methylene_blue_anatase0.28_brookite0.72.dat
# Methylene blue with anatase (0.28%) brookite (0.72%)
# Wavelength(nm) Absorbance(a.u.)
#	A.M.Brooquita.Anatasa. 60h 195 min	A.M.Brooquita.Anatasa. 60h 120 min	A.M.Brooquita.Anatasa. 60h 90 min	A.M.Brooquita.Anatasa. 60h 60 min	A.M.Brooquita.Anatasa. 60h 30 min	A.M.Brooquita.Anatasa. 60h 15 min	A.M.Brooquita.Anatasa. 60h 5 min	A.M.Brooquita.Anatasa. 60h 0 min
199.408	-0.03376	-0.02285	-0.02507	0.00684	0.00931	0.02696	0.02491	0.02874
201.196	-0.03607	-0.02987	-0.01088	-0.0022	0	0.03041	0.02675	0.03587
202.984	-0.01714	-0.02687	-0.00121	-0.00273	0.02804	0.03192	0.057	0.03427
204.772	-0.01459	-0.00112	-0.01843	0.00248	0.01917	0.0298	0.04947	0.03704
206.56	-0.0223	-0.01853	-0.01236	-0.00758	0.0132	0.03058	0.04647	0.03476
208.347	-0.02093	-0.01776	-0.01301	-0.00729	0.01313	0.03221	0.04678	0.03544
210.134	-0.02227	-0.01764	-0.01284	-0.00788	0.01258	0.03276	0.04536	0.03537
211.921	-0.02189	-0.01897	-0.01101	-0.00781	0.01167	0.03393	0.04534	0.03602
213.707	-0.02262	-0.01872	-0.01021	-0.00957	0.01148	0.03574	0.04434	0.03772
215.494	-0.02319	-0.02104	-0.01034	-0.01039	0.01049	0.03403	0.04237	0.03907
217.28	-0.02313	-0.02148	-0.01189	-0.01002	0.01014	0.03304	0.0427	0.03934
219.066	-0.02551	-0.02384	-0.01116	-0.01009	0.00768	0.03209	0.04251	0.03957
220.851	-0.02631	-0.02358	-0.01137	-0.01089	0.00828	0.03113	0.04322	0.0397
222.637	-0.02613	-0.02349	-0.01269	-0.0106	0.00927	0.02991	0.0426	0.04003
224.422	-0.02783	-0.02531	-0.01461	-0.01213	0.00845	0.02792	0.04108	0.03852
226.207	-0.02854	-0.02562	-0.01566	-0.01129	0.00782	0.02525	0.04158	0.0374
227.991	-0.02641	-0.02213	-0.01587	-0.00867	0.01106	0.02863	0.04289	0.03788
229.776	-0.0265	-0.01986	-0.01393	-0.00753	0.01343	0.03064	0.04467	0.03994
231.56	-0.02418	-0.01733	-0.0137	-0.00739	0.01672	0.03172	0.04312	0.0415
233.344	-0.02347	-0.01715	-0.01267	-0.00399	0.01824	0.03305	0.04435	0.04331
235.128	-0.02377	-0.01792	-0.01214	-0.00419	0.01648	0.03495	0.04574	0.04648
236.911	-0.02188	-0.01516	-0.01066	-0.00209	0.0178	0.03679	0.04963	0.04995
238.694	-0.0216	-0.01324	-0.00988	3.04427E-4	0.01971	0.04061	0.05245	0.05636
240.477	-0.02198	-0.01277	-0.00839	2.80291E-4	0.01909	0.04238	0.0562	0.06193
242.26	-0.02157	-0.01223	-0.00523	0.00213	0.01952	0.04454	0.05957	0.06737
244.043	-0.02075	-0.01001	-0.00153	0.00375	0.02013	0.04807	0.06614	0.07588
245.825	-0.01942	-0.00795	0.00183	0.00462	0.02026	0.05126	0.06932	0.08332
247.607	-0.01881	-0.00455	0.00515	0.00772	0.0233	0.05444	0.07414	0.09281
249.389	-0.01732	-0.00168	0.00821	0.01038	0.02572	0.05815	0.07725	0.10357
251.17	-0.01547	3.24188E-4	0.01179	0.01152	0.02755	0.06193	0.08103	0.11235
252.952	-0.01426	0.00365	0.01371	0.01395	0.02952	0.06654	0.08614	0.12294
254.733	-0.01309	0.00608	0.01482	0.0172	0.03093	0.06994	0.09117	0.13249
256.513	-0.01441	0.00715	0.016	0.0188	0.03242	0.07228	0.09482	0.1402
258.294	-0.01497	0.00986	0.01673	0.02038	0.03539	0.07542	0.1003	0.15028
260.074	-0.01415	0.01102	0.01841	0.02264	0.03761	0.07916	0.10531	0.15869
261.854	-0.01525	0.01245	0.01914	0.02287	0.03823	0.08178	0.11018	0.16495
263.634	-0.01626	0.01412	0.02053	0.02541	0.03911	0.08431	0.11723	0.17418
265.414	-0.0169	0.01435	0.02197	0.02693	0.04078	0.08629	0.12126	0.18128
267.193	-0.018	0.01509	0.02291	0.02679	0.04178	0.09085	0.1272	0.19104
268.972	-0.0181	0.01648	0.02372	0.02935	0.04354	0.09586	0.13303	0.20251
270.751	-0.01755	0.01738	0.02586	0.03076	0.04538	0.10064	0.13924	0.21273
272.529	-0.0171	0.01927	0.02813	0.03182	0.04685	0.10574	0.14681	0.22468
274.307	-0.01783	0.01984	0.02939	0.03424	0.04911	0.11075	0.15336	0.23546
276.086	-0.01785	0.01973	0.02988	0.03425	0.05213	0.1162	0.16005	0.24701
277.863	-0.01788	0.01925	0.03082	0.03567	0.0548	0.12129	0.16782	0.25896
279.641	-0.01824	0.01908	0.03163	0.03728	0.05887	0.12588	0.17504	0.26962
281.418	-0.01733	0.01904	0.03279	0.03852	0.06248	0.13221	0.18495	0.28189
283.195	-0.0179	0.0191	0.03345	0.04035	0.06574	0.13934	0.19389	0.29541
284.972	-0.01937	0.01894	0.03289	0.04145	0.06877	0.14495	0.20166	0.30698
286.748	-0.01878	0.01936	0.03364	0.04227	0.07051	0.14962	0.20891	0.31665
288.524	-0.01903	0.01973	0.03357	0.04277	0.07213	0.1532	0.21349	0.32517
290.3	-0.02019	0.01952	0.0331	0.04227	0.07201	0.1545	0.21555	0.33235
292.076	-0.01983	0.02025	0.03333	0.04262	0.07087	0.1552	0.21748	0.33854
293.852	-0.01991	0.0213	0.03329	0.04211	0.06913	0.15308	0.21592	0.34078
295.627	-0.01992	0.021	0.03177	0.04096	0.06532	0.14808	0.21107	0.33989
297.402	-0.01955	0.02075	0.03129	0.04004	0.06188	0.14299	0.20562	0.33785
299.176	-0.01992	0.02045	0.02986	0.03856	0.058	0.13693	0.19826	0.33462
300.951	-0.02053	0.02057	0.02962	0.03746	0.054	0.12995	0.19048	0.3291
302.725	-0.01997	0.02128	0.02936	0.037	0.0501	0.12333	0.18338	0.32285
304.499	-0.02019	0.02138	0.02852	0.0357	0.04604	0.11642	0.17516	0.31471
306.272	-0.0205	0.02028	0.02807	0.03459	0.04222	0.1108	0.16707	0.30679
308.046	-0.02049	0.02043	0.02803	0.03385	0.03959	0.1059	0.16003	0.29887
309.819	-0.02069	0.02044	0.02811	0.03308	0.03718	0.10126	0.1539	0.29039
311.591	-0.02109	0.01984	0.02837	0.03245	0.03533	0.097	0.14813	0.28203
313.364	-0.0208	0.02004	0.02867	0.03226	0.03372	0.09423	0.14335	0.27375
315.136	-0.02138	0.01955	0.02842	0.03119	0.03216	0.09101	0.13813	0.26415
316.908	-0.02178	0.01884	0.0283	0.03058	0.0315	0.08793	0.13284	0.25516
318.68	-0.02253	0.01876	0.02779	0.02994	0.03033	0.08433	0.12769	0.24462
320.451	-0.02345	0.01807	0.02776	0.02917	0.02916	0.08059	0.12239	0.23321
322.223	-0.02399	0.01754	0.02674	0.02853	0.0279	0.0773	0.11643	0.22227
323.994	-0.02448	0.01728	0.0261	0.02786	0.02667	0.07387	0.11046	0.21091
325.764	-0.02482	0.01654	0.02518	0.02721	0.02518	0.06963	0.10475	0.19897
327.535	-0.02547	0.01591	0.02429	0.02636	0.02362	0.06559	0.09831	0.18729
329.305	-0.02525	0.01576	0.02381	0.02549	0.02207	0.0619	0.09225	0.17558
331.074	-0.02524	0.0153	0.02317	0.0246	0.02083	0.05781	0.0863	0.16453
332.844	-0.02486	0.0146	0.02231	0.02356	0.01918	0.05404	0.08039	0.15442
334.613	-0.02486	0.01395	0.02192	0.02258	0.01764	0.05006	0.07457	0.14396
336.382	-0.02455	0.01294	0.02095	0.02147	0.01585	0.04589	0.06882	0.13385
338.151	-0.02444	0.01222	0.02012	0.02006	0.01457	0.04242	0.06314	0.12455
339.919	-0.02389	0.01136	0.01952	0.01903	0.01352	0.03913	0.05818	0.1163
341.688	-0.02384	0.01038	0.01845	0.01791	0.01211	0.03591	0.05347	0.10818
343.455	-0.0245	0.00925	0.0171	0.01644	0.01041	0.03264	0.04899	0.10057
345.223	-0.02458	0.00874	0.01615	0.01552	0.00914	0.03006	0.04512	0.09373
346.99	-0.02465	0.00782	0.0151	0.01439	0.00791	0.02772	0.04158	0.0873
348.757	-0.02493	0.00702	0.01405	0.01325	0.00684	0.02553	0.03812	0.08134
350.524	-0.02505	0.0062	0.01309	0.01243	0.00583	0.02331	0.03512	0.07572
352.291	-0.02567	0.00529	0.01181	0.01139	0.00473	0.02092	0.03214	0.07
354.057	-0.02623	0.0042	0.01051	0.01031	0.00333	0.01859	0.02889	0.06497
355.823	-0.0259	0.00364	0.00987	0.00995	0.00276	0.01705	0.02634	0.06071
357.588	-0.02611	0.00281	0.00908	0.0089	0.00196	0.01527	0.02397	0.05639
359.354	-0.0259	0.00224	0.0084	0.00852	0.00166	0.01384	0.02212	0.05291
361.119	-0.02593	0.00167	0.00754	0.00793	9.74868E-4	0.01251	0.02024	0.04984
362.884	-0.02617	0.00104	0.00687	0.00697	1.9119E-4	0.01135	0.01827	0.04664
364.648	-0.02599	5.59968E-4	0.00641	0.00642	-3.1513E-4	0.01039	0.01688	0.044
366.412	-0.02591	7.77317E-5	0.0061	0.00614	-5.83577E-4	0.00982	0.0158	0.04165
368.176	-0.02624	-5.21794E-4	0.00546	0.00538	-0.00104	0.00885	0.01454	0.03929
369.94	-0.02638	-0.00122	0.00464	0.00505	-0.00148	0.00792	0.01353	0.03718
371.703	-0.02639	-0.00162	0.00404	0.0043	-0.00205	0.00708	0.01253	0.03507
373.466	-0.02654	-0.00225	0.00373	0.00362	-0.00242	0.00638	0.01183	0.03315
375.229	-0.02664	-0.00282	0.00325	0.0033	-0.0028	0.00559	0.01107	0.03157
376.992	-0.02691	-0.00337	0.0025	0.00275	-0.00334	0.00482	0.00998	0.02982
378.754	-0.02709	-0.00388	0.00184	0.00214	-0.00374	0.00401	0.00901	0.02819
380.516	-0.02687	-0.00443	0.0014	0.00158	-0.00412	0.00361	0.0083	0.02674
382.277	-0.02692	-0.00463	0.00116	0.00111	-0.00422	0.00328	0.00776	0.02547
384.039	-0.02705	-0.00518	9.95384E-4	7.83879E-4	-0.00437	0.00291	0.00709	0.02449
385.8	-0.02716	-0.00554	3.1711E-4	1.71015E-4	-0.00471	0.00233	0.00635	0.02326
387.56	-0.02713	-0.00575	-2.4637E-4	-4.23619E-4	-0.00496	0.00191	0.00582	0.02213
389.321	-0.0269	-0.00623	-7.46675E-4	-9.28128E-4	-0.00522	0.00163	0.00537	0.02103
391.081	-0.02669	-0.00664	-0.00109	-0.00139	-0.00538	0.00135	0.00515	0.02023
392.841	-0.02712	-0.00706	-0.0019	-0.00196	-0.00591	7.0867E-4	0.00441	0.01885
394.6	-0.02716	-0.00773	-0.00259	-0.00275	-0.00655	2.09786E-5	0.00344	0.01764
396.36	-0.02731	-0.00796	-0.00316	-0.00288	-0.00675	-4.41259E-4	0.00287	0.01682
398.119	-0.02717	-0.00831	-0.00331	-0.00295	-0.00702	-6.64091E-4	0.00244	0.0157
399.877	-0.02725	-0.00909	-0.0039	-0.00352	-0.00743	-0.00123	0.00165	0.01456
401.636	-0.02756	-0.00967	-0.0043	-0.00396	-0.00784	-0.00212	9.96903E-4	0.01344
403.394	-0.02779	-0.00995	-0.00466	-0.00452	-0.00832	-0.00274	1.02766E-4	0.01235
405.151	-0.02717	-0.00993	-0.00454	-0.00416	-0.00816	-0.00274	-1.95405E-4	0.0119
406.909	-0.02717	-0.01011	-0.00466	-0.00434	-0.00835	-0.00323	-7.67187E-4	0.01099
408.666	-0.02693	-0.01046	-0.00513	-0.00477	-0.00876	-0.00355	-0.00142	0.00991
410.423	-0.02714	-0.01081	-0.00591	-0.00538	-0.0091	-0.00431	-0.00207	0.00903
412.179	-0.02699	-0.01091	-0.00601	-0.00544	-0.00934	-0.0046	-0.00229	0.00842
413.936	-0.02678	-0.01099	-0.00629	-0.00544	-0.00937	-0.00467	-0.00266	0.00781
415.692	-0.02673	-0.01156	-0.00673	-0.0057	-0.00937	-0.005	-0.00277	0.00701
417.447	-0.0269	-0.0121	-0.00741	-0.00637	-0.0097	-0.00553	-0.00325	0.0063
419.203	-0.02674	-0.01249	-0.00789	-0.00676	-0.00986	-0.00583	-0.00355	0.00588
420.958	-0.02696	-0.01291	-0.00825	-0.0074	-0.01005	-0.00646	-0.004	0.0053
422.712	-0.02687	-0.01315	-0.00837	-0.00751	-0.01017	-0.00653	-0.00411	0.00524
424.467	-0.02664	-0.01322	-0.00873	-0.00781	-0.01014	-0.00669	-0.00418	0.00504
426.221	-0.02676	-0.0135	-0.00924	-0.00856	-0.01063	-0.00715	-0.00475	0.00444
427.975	-0.02653	-0.01348	-0.00961	-0.00868	-0.01094	-0.00719	-0.00494	0.00447
429.728	-0.02651	-0.01376	-0.00997	-0.00918	-0.01124	-0.00751	-0.00506	0.00409
431.481	-0.02663	-0.01396	-0.01019	-0.00939	-0.01135	-0.00736	-0.00483	0.00371
433.234	-0.0267	-0.01413	-0.01062	-0.00982	-0.01153	-0.00726	-0.00474	0.00326
434.987	-0.02667	-0.01466	-0.01116	-0.01033	-0.01172	-0.00742	-0.00522	0.00253
436.739	-0.02688	-0.01524	-0.01164	-0.01086	-0.01208	-0.00749	-0.00557	0.00185
438.491	-0.02664	-0.01545	-0.01164	-0.01088	-0.01176	-0.00718	-0.00525	0.00187
440.243	-0.02644	-0.01547	-0.01144	-0.01122	-0.01161	-0.00727	-0.00499	0.00151
441.994	-0.02651	-0.0157	-0.01169	-0.01153	-0.01165	-0.00736	-0.00516	0.00123
443.745	-0.02657	-0.01597	-0.01219	-0.0118	-0.01193	-0.00752	-0.00538	9.01183E-4
445.496	-0.02627	-0.01614	-0.01237	-0.0119	-0.01193	-0.00748	-0.00541	7.94941E-4
447.246	-0.02611	-0.01591	-0.01213	-0.01186	-0.01179	-0.00733	-0.00478	7.9539E-4
448.996	-0.02574	-0.01577	-0.01197	-0.0117	-0.01145	-0.00708	-0.00441	0.0011
450.746	-0.02567	-0.01576	-0.01211	-0.01158	-0.0113	-0.00675	-0.00407	0.00124
452.495	-0.02595	-0.01626	-0.01271	-0.01197	-0.01173	-0.00674	-0.00444	7.99976E-4
454.244	-0.02589	-0.0163	-0.01284	-0.0119	-0.01181	-0.00631	-0.00438	7.47863E-4
455.993	-0.02545	-0.01605	-0.01252	-0.01184	-0.01136	-0.00586	-0.00393	9.86671E-4
457.742	-0.02574	-0.01612	-0.01284	-0.012	-0.01148	-0.00579	-0.00371	5.75648E-4
459.49	-0.02572	-0.01636	-0.013	-0.01213	-0.01158	-0.00572	-0.00388	5.97024E-4
461.238	-0.02584	-0.01646	-0.01339	-0.01226	-0.01162	-0.00574	-0.00376	5.93251E-4
462.985	-0.02591	-0.01659	-0.01353	-0.01256	-0.01157	-0.00583	-0.00373	4.37592E-4
464.732	-0.02555	-0.01645	-0.01319	-0.01234	-0.01096	-0.00548	-0.00305	6.26018E-4
466.479	-0.02533	-0.0165	-0.01324	-0.01227	-0.01053	-0.00538	-0.00258	6.78102E-4
468.226	-0.02533	-0.01671	-0.01324	-0.01222	-0.01047	-0.00541	-0.00226	6.76887E-4
469.972	-0.02523	-0.01722	-0.01339	-0.01251	-0.01042	-0.00559	-0.00252	8.39917E-4
471.718	-0.02518	-0.01732	-0.01349	-0.01241	-0.01026	-0.00554	-0.00228	6.78312E-4
473.463	-0.02497	-0.01707	-0.01318	-0.01241	-0.01002	-0.00505	-0.00208	6.61464E-4
475.209	-0.0248	-0.01705	-0.01321	-0.01249	-0.01032	-0.00509	-0.00194	6.07218E-4
476.954	-0.02487	-0.01748	-0.01369	-0.01267	-0.01062	-0.0054	-0.00231	4.56526E-4
478.698	-0.02486	-0.01727	-0.01358	-0.01287	-0.01074	-0.00519	-0.00232	4.30881E-4
480.442	-0.02481	-0.01729	-0.01382	-0.01301	-0.01074	-0.0052	-0.00256	1.9638E-4
482.186	-0.02466	-0.01708	-0.01371	-0.01266	-0.01057	-0.00494	-0.00207	5.05582E-4
483.93	-0.02444	-0.01697	-0.0136	-0.01245	-0.01028	-0.0046	-0.00158	6.71097E-4
485.673	-0.02454	-0.01723	-0.01377	-0.01243	-0.01021	-0.00462	-0.00143	6.66581E-4
487.416	-0.0244	-0.01723	-0.0135	-0.012	-0.00971	-0.004	-9.83741E-4	0.00102
489.159	-0.02427	-0.01694	-0.01321	-0.01195	-0.00915	-0.00327	-3.86767E-4	0.00131
490.901	-0.0243	-0.01731	-0.01319	-0.01189	-0.00876	-0.00309	1.6128E-4	0.00162
492.643	-0.02421	-0.01708	-0.01288	-0.01173	-0.00828	-0.00241	0.00109	0.00222
494.385	-0.02393	-0.01693	-0.01269	-0.0117	-0.00754	-0.0016	0.00185	0.00254
496.126	-0.024	-0.01726	-0.01289	-0.012	-0.00736	-9.4681E-4	0.00227	0.00285
497.867	-0.02381	-0.0173	-0.01308	-0.01209	-0.00709	-3.50922E-4	0.00264	0.003
499.608	-0.02393	-0.0172	-0.0134	-0.01235	-0.00711	-2.83977E-4	0.00252	0.00302
501.348	-0.02409	-0.01731	-0.01366	-0.01223	-0.00712	-3.63901E-4	0.00258	0.00325
503.088	-0.02412	-0.0171	-0.01386	-0.012	-0.00723	4.17868E-5	0.00277	0.00315
504.828	-0.02382	-0.01697	-0.0136	-0.01125	-0.00672	6.7201E-4	0.0033	0.00369
506.567	-0.02384	-0.0173	-0.01365	-0.01135	-0.00695	6.27272E-4	0.00315	0.00355
508.306	-0.02381	-0.01704	-0.0134	-0.01135	-0.00647	5.7506E-4	0.0032	0.00366
510.045	-0.02408	-0.01726	-0.01333	-0.01147	-0.0066	2.37685E-4	0.00319	0.00327
511.783	-0.0242	-0.01746	-0.01311	-0.01155	-0.00666	2.51955E-4	0.00355	0.00325
513.521	-0.02382	-0.01728	-0.01269	-0.01141	-0.00637	6.98907E-4	0.00429	0.00336
515.258	-0.02368	-0.01741	-0.01246	-0.01115	-0.00569	0.00102	0.00477	0.00375
516.996	-0.02378	-0.01754	-0.01235	-0.01125	-0.00551	0.00124	0.00491	0.00371
518.733	-0.02365	-0.01727	-0.01204	-0.01072	-0.00464	0.00199	0.00581	0.0043
520.469	-0.0236	-0.01695	-0.01173	-0.01026	-0.00423	0.00278	0.00664	0.00484
522.205	-0.0234	-0.01694	-0.01143	-0.01017	-0.00389	0.00381	0.00747	0.00532
523.941	-0.02341	-0.0167	-0.01149	-0.00968	-0.00317	0.00433	0.00803	0.00563
525.677	-0.02372	-0.01648	-0.01141	-0.00911	-0.0028	0.00479	0.00844	0.00594
527.412	-0.02362	-0.01672	-0.01123	-0.00895	-0.00248	0.00525	0.00842	0.00602
529.147	-0.02361	-0.01662	-0.01119	-0.00895	-0.00222	0.0056	0.00891	0.00606
530.882	-0.02346	-0.0165	-0.01082	-0.00874	-0.00177	0.0061	0.00938	0.00647
532.616	-0.02352	-0.01666	-0.01083	-0.00857	-0.0017	0.00649	0.00964	0.00656
534.35	-0.02338	-0.01627	-0.01046	-0.00795	-0.00104	0.00715	0.01045	0.00744
536.083	-0.02311	-0.01612	-0.01016	-0.00752	-4.45747E-4	0.00817	0.01127	0.00823
537.816	-0.02305	-0.01629	-0.01012	-0.00752	-8.9837E-5	0.00888	0.01224	0.00885
539.549	-0.02331	-0.01616	-0.00997	-0.00725	4.59032E-4	0.00975	0.0134	0.00962
541.282	-0.02315	-0.01593	-0.00951	-0.00675	0.00148	0.01108	0.01486	0.01096
543.014	-0.02315	-0.01598	-0.0095	-0.00644	0.00225	0.01219	0.01637	0.01214
544.745	-0.02316	-0.01591	-0.00915	-0.00606	0.00351	0.01366	0.01814	0.0136
546.477	-0.02326	-0.0159	-0.00904	-0.00577	0.00431	0.01495	0.01984	0.01452
548.208	-0.02319	-0.0159	-0.00904	-0.00565	0.00518	0.01636	0.02159	0.01583
549.939	-0.02295	-0.01545	-0.00852	-0.00504	0.00641	0.01809	0.02338	0.01734
551.669	-0.02264	-0.01512	-0.00831	-0.00473	0.00738	0.0198	0.0255	0.01883
553.399	-0.02279	-0.01533	-0.0084	-0.0044	0.00822	0.02112	0.02719	0.02006
555.129	-0.02295	-0.01524	-0.0083	-0.00408	0.00915	0.02288	0.02902	0.02152
556.858	-0.02289	-0.01523	-0.00826	-0.00365	0.01022	0.02443	0.03096	0.023
558.587	-0.02268	-0.01508	-0.00788	-0.0032	0.01151	0.02617	0.03304	0.02474
560.315	-0.02255	-0.01477	-0.00744	-0.00253	0.01272	0.02787	0.03512	0.02647
562.044	-0.02245	-0.01456	-0.00712	-0.00202	0.01406	0.02978	0.03737	0.02822
563.772	-0.02249	-0.01456	-0.00688	-0.00168	0.01532	0.03151	0.03962	0.02994
565.499	-0.02233	-0.01441	-0.00654	-0.00129	0.01676	0.0336	0.04201	0.03182
567.226	-0.02209	-0.01417	-0.00605	-7.36476E-4	0.01818	0.03561	0.04464	0.03368
568.953	-0.02168	-0.01379	-0.00534	-1.81585E-5	0.01984	0.03802	0.0474	0.03571
570.679	-0.02142	-0.01362	-0.00508	5.26583E-4	0.02119	0.04016	0.05	0.03759
572.406	-0.02144	-0.01354	-0.00487	8.17841E-4	0.02245	0.04214	0.05253	0.03938
574.131	-0.02132	-0.0135	-0.00471	0.00117	0.02357	0.04418	0.055	0.04137
575.857	-0.02113	-0.01327	-0.00431	0.00179	0.02497	0.04635	0.05772	0.04353
577.582	-0.0208	-0.01286	-0.00378	0.00256	0.02657	0.04886	0.06075	0.04589
579.306	-0.02061	-0.01266	-0.0034	0.00313	0.0281	0.05138	0.06387	0.04831
581.031	-0.0206	-0.01262	-0.00327	0.00347	0.02947	0.05373	0.0669	0.05077
582.754	-0.02056	-0.01247	-0.00287	0.00398	0.03107	0.05637	0.07021	0.05345
584.478	-0.02044	-0.01241	-0.00257	0.00456	0.03279	0.05924	0.07375	0.05625
586.201	-0.02049	-0.01231	-0.00225	0.00504	0.03469	0.06209	0.07759	0.05915
587.924	-0.02049	-0.01218	-0.00203	0.00548	0.0364	0.06514	0.08144	0.06208
589.646	-0.02063	-0.01214	-0.0019	0.00584	0.03814	0.06798	0.08539	0.0651
591.369	-0.02069	-0.01217	-0.00179	0.00628	0.0399	0.07099	0.08926	0.06822
593.09	-0.0206	-0.01181	-0.0014	0.00698	0.04191	0.0742	0.09351	0.07154
594.812	-0.02061	-0.01166	-0.00117	0.00736	0.0438	0.07722	0.09754	0.0749
596.533	-0.02056	-0.01153	-7.22034E-4	0.00786	0.04587	0.08044	0.10186	0.07825
598.253	-0.0204	-0.01121	-1.91893E-4	0.00859	0.04792	0.08368	0.10605	0.08158
599.974	-0.02039	-0.01108	1.58223E-4	0.00918	0.05	0.08691	0.11031	0.08504
601.693	-0.0203	-0.01081	5.99001E-4	0.00971	0.052	0.09008	0.11435	0.08846
603.413	-0.02016	-0.01049	0.00101	0.01023	0.05396	0.09299	0.11831	0.09177
605.132	-0.02029	-0.01058	0.00118	0.01045	0.05557	0.09558	0.12174	0.0947
606.851	-0.02017	-0.0104	0.00149	0.01098	0.05728	0.09832	0.12519	0.09759
608.569	-0.02015	-0.01026	0.00153	0.0113	0.05871	0.10053	0.12806	0.10006
610.287	-0.01999	-0.01018	0.00171	0.01158	0.05992	0.10263	0.13063	0.10242
612.005	-0.02002	-0.01037	0.00164	0.01158	0.06073	0.10398	0.13245	0.10408
613.722	-0.02001	-0.01061	0.00157	0.01167	0.06158	0.10529	0.1341	0.10548
615.439	-0.02013	-0.01081	0.00145	0.01177	0.06229	0.10656	0.13555	0.10653
617.156	-0.02016	-0.01088	0.00135	0.01194	0.06301	0.10767	0.13686	0.10749
618.872	-0.02016	-0.01111	0.00137	0.0121	0.06365	0.10871	0.13801	0.10818
620.587	-0.0203	-0.01134	0.00138	0.01227	0.06417	0.10953	0.13892	0.10892
622.303	-0.02044	-0.01147	0.00126	0.01235	0.06493	0.11039	0.13996	0.10953
624.018	-0.02043	-0.01143	0.00141	0.01263	0.06568	0.11169	0.14131	0.11041
625.733	-0.02053	-0.0114	0.00147	0.01277	0.06638	0.113	0.14271	0.11144
627.447	-0.02067	-0.01144	0.00152	0.01281	0.06709	0.1141	0.14421	0.11258
629.161	-0.02081	-0.01153	0.00163	0.0129	0.06787	0.11551	0.14594	0.11375
630.874	-0.02095	-0.01145	0.00164	0.01302	0.06877	0.11713	0.14795	0.11535
632.587	-0.02103	-0.01138	0.00164	0.01302	0.06967	0.11894	0.15043	0.117
634.3	-0.02096	-0.01142	0.00164	0.01309	0.07071	0.12089	0.15321	0.11903
636.012	-0.02107	-0.01158	0.00148	0.01301	0.07191	0.12291	0.15608	0.1211
637.724	-0.02109	-0.01174	0.00137	0.01304	0.07321	0.1252	0.15937	0.12318
639.436	-0.02097	-0.01183	0.00113	0.01314	0.07474	0.12788	0.16297	0.12576
641.147	-0.02099	-0.01186	0.00107	0.01315	0.07632	0.13065	0.16705	0.12872
642.858	-0.02091	-0.01191	8.33945E-4	0.01303	0.07781	0.13349	0.17126	0.13169
644.568	-0.02067	-0.01187	7.89412E-4	0.01324	0.07956	0.13637	0.17582	0.13493
646.278	-0.02062	-0.01197	6.62097E-4	0.01338	0.08103	0.1393	0.18027	0.13833
647.988	-0.02044	-0.01182	5.35408E-4	0.01353	0.08234	0.14203	0.18457	0.14151
649.697	-0.02026	-0.01162	5.45136E-4	0.01371	0.0835	0.14443	0.18855	0.14468
651.406	-0.02008	-0.01143	7.21386E-4	0.01386	0.08444	0.14636	0.19198	0.14753
653.115	-0.01989	-0.0115	4.14865E-4	0.01378	0.0849	0.14776	0.19467	0.14973
654.823	-0.01985	-0.01147	1.36456E-4	0.01368	0.08537	0.14879	0.19711	0.15188
656.531	-0.01987	-0.01176	-3.8705E-4	0.01329	0.08554	0.14976	0.19904	0.15386
658.238	-0.01983	-0.01178	-7.6019E-4	0.01286	0.08556	0.15032	0.20057	0.15537
659.945	-0.01975	-0.01195	-0.0013	0.01237	0.08519	0.15044	0.20145	0.15664
661.651	-0.01965	-0.01217	-0.00204	0.01185	0.08451	0.14992	0.20154	0.15713
663.358	-0.01965	-0.0124	-0.0029	0.01096	0.08312	0.14839	0.20021	0.15652
665.063	-0.01954	-0.01247	-0.00367	0.0101	0.08139	0.14591	0.19763	0.15502
666.769	-0.01944	-0.01279	-0.0045	0.00896	0.07862	0.14191	0.19304	0.15184
668.474	-0.01939	-0.01293	-0.00529	0.0077	0.07504	0.1365	0.18638	0.14686
670.178	-0.0193	-0.01321	-0.00637	0.00629	0.07075	0.12973	0.1779	0.14044
671.882	-0.01928	-0.01334	-0.00718	0.00474	0.0658	0.12152	0.16747	0.13231
673.586	-0.01926	-0.01377	-0.00799	0.003	0.06028	0.11221	0.15539	0.12281
675.29	-0.01921	-0.01419	-0.00893	0.00134	0.05424	0.10222	0.14218	0.11238
676.993	-0.01928	-0.01467	-0.00974	-5.01557E-4	0.04779	0.09168	0.12825	0.10114
678.695	-0.01927	-0.01502	-0.01057	-0.00214	0.04148	0.08114	0.11412	0.08985
680.397	-0.01938	-0.01536	-0.01152	-0.00384	0.03508	0.07065	0.10013	0.07856
682.099	-0.0195	-0.01586	-0.01237	-0.00566	0.02883	0.06023	0.08625	0.06721
683.801	-0.01963	-0.01646	-0.0132	-0.00728	0.0228	0.05037	0.07302	0.05639
685.502	-0.01969	-0.01673	-0.01394	-0.0087	0.01731	0.04123	0.06074	0.04657
687.202	-0.0196	-0.017	-0.01445	-0.00988	0.01235	0.03286	0.04948	0.03751
688.902	-0.01936	-0.01708	-0.01507	-0.01096	0.00801	0.02554	0.03958	0.02928
690.602	-0.01934	-0.01728	-0.01553	-0.012	0.00424	0.01922	0.03116	0.02222
692.302	-0.0192	-0.0174	-0.01589	-0.01291	0.00115	0.01387	0.02385	0.0162
694.001	-0.01887	-0.01727	-0.01605	-0.01343	-0.00155	0.00934	0.01781	0.01126
695.699	-0.01859	-0.01732	-0.01627	-0.01404	-0.00383	0.00553	0.01275	0.00718
697.397	-0.01845	-0.01733	-0.01669	-0.01478	-0.00611	0.00208	0.00833	0.0034
699.095	-0.01856	-0.01742	-0.01706	-0.01558	-0.00815	-9.36128E-4	0.00448	1.11297E-4
700.792	-0.01882	-0.01765	-0.01727	-0.01622	-0.00988	-0.00357	0.00111	-0.00233
702.489	-0.01881	-0.01772	-0.01746	-0.0166	-0.01135	-0.00573	-0.00164	-0.00446
704.186	-0.01883	-0.01777	-0.01747	-0.01674	-0.01235	-0.00742	-0.00373	-0.00617
705.882	-0.01881	-0.01791	-0.01742	-0.01687	-0.01321	-0.00882	-0.0055	-0.00746
707.578	-0.01868	-0.01778	-0.01755	-0.01701	-0.01394	-0.00999	-0.00697	-0.00871
709.273	-0.01861	-0.01786	-0.01761	-0.01714	-0.0145	-0.01092	-0.00824	-0.00971
710.968	-0.01857	-0.01798	-0.0178	-0.0173	-0.01488	-0.01172	-0.00929	-0.01036
712.663	-0.01823	-0.0179	-0.01783	-0.01728	-0.01514	-0.01229	-0.01002	-0.01103
714.357	-0.01811	-0.01785	-0.01791	-0.01751	-0.01551	-0.01286	-0.01074	-0.01156
716.05	-0.01811	-0.0181	-0.01816	-0.01774	-0.01596	-0.01358	-0.0116	-0.01212
717.744	-0.01821	-0.0181	-0.0184	-0.01804	-0.0162	-0.01399	-0.01234	-0.01273
719.437	-0.01838	-0.01814	-0.01845	-0.01823	-0.01648	-0.01447	-0.01307	-0.01312
721.129	-0.01836	-0.01799	-0.01827	-0.01813	-0.01655	-0.01479	-0.01351	-0.01322
722.821	-0.01828	-0.0179	-0.0181	-0.01784	-0.0167	-0.01503	-0.0137	-0.01356
724.513	-0.01828	-0.0179	-0.01808	-0.01772	-0.01673	-0.01506	-0.01389	-0.01383
726.204	-0.01807	-0.01773	-0.01798	-0.01758	-0.01663	-0.01499	-0.0139	-0.01386
727.895	-0.01769	-0.01726	-0.01776	-0.01742	-0.01663	-0.01487	-0.01384	-0.01392
729.585	-0.01732	-0.01694	-0.01759	-0.01715	-0.01651	-0.01483	-0.01373	-0.01374
731.275	-0.01686	-0.01673	-0.0174	-0.0168	-0.01609	-0.0146	-0.01347	-0.01365
732.965	-0.0165	-0.01645	-0.01707	-0.01663	-0.01575	-0.01433	-0.01319	-0.01368
734.654	-0.016	-0.01608	-0.01656	-0.01645	-0.01529	-0.0139	-0.01277	-0.01323
736.342	-0.01563	-0.01563	-0.01614	-0.01597	-0.01496	-0.01379	-0.01261	-0.01284
738.031	-0.0153	-0.01528	-0.01569	-0.01566	-0.01486	-0.01379	-0.01271	-0.01277
739.718	-0.01509	-0.01504	-0.01538	-0.01559	-0.01473	-0.01379	-0.01271	-0.0125
741.406	-0.01496	-0.01489	-0.01511	-0.0156	-0.01479	-0.01389	-0.01269	-0.01237
743.093	-0.01493	-0.01487	-0.0149	-0.01557	-0.01483	-0.01389	-0.01278	-0.01219
744.78	-0.01474	-0.01474	-0.01501	-0.0155	-0.01477	-0.01382	-0.01277	-0.01194
746.466	-0.01469	-0.0147	-0.01511	-0.01548	-0.01487	-0.01377	-0.01288	-0.01213
748.151	-0.01468	-0.01495	-0.01528	-0.01583	-0.015	-0.01404	-0.01309	-0.01227
749.837	-0.0146	-0.01504	-0.01542	-0.01574	-0.01486	-0.01407	-0.01298	-0.01223
751.522	-0.01468	-0.01525	-0.01544	-0.01553	-0.01473	-0.01398	-0.01305	-0.01262
753.206	-0.01478	-0.01531	-0.01546	-0.01543	-0.01469	-0.01401	-0.01324	-0.0129
754.89	-0.01459	-0.01515	-0.01528	-0.01518	-0.01471	-0.01398	-0.01327	-0.0131
756.574	-0.01468	-0.01518	-0.01499	-0.01511	-0.01484	-0.0142	-0.01356	-0.01337
758.257	-0.01467	-0.01511	-0.01498	-0.01511	-0.01483	-0.01439	-0.01384	-0.01349
759.94	-0.01448	-0.01482	-0.0148	-0.01499	-0.01476	-0.01415	-0.01366	-0.01345
761.622	-0.01455	-0.01494	-0.01473	-0.01515	-0.01487	-0.01428	-0.01391	-0.0137
763.304	-0.01448	-0.01505	-0.01495	-0.01525	-0.015	-0.01438	-0.01397	-0.01373
764.986	-0.01458	-0.0151	-0.01488	-0.01534	-0.0152	-0.01453	-0.01408	-0.01377
766.667	-0.01517	-0.01547	-0.01511	-0.01576	-0.01539	-0.01497	-0.0144	-0.01412
768.347	-0.01515	-0.0154	-0.01532	-0.01571	-0.01536	-0.01489	-0.01433	-0.01422
770.028	-0.01526	-0.01553	-0.01548	-0.01584	-0.01553	-0.0154	-0.01466	-0.01433
771.707	-0.01566	-0.01581	-0.01556	-0.01595	-0.01587	-0.01571	-0.01501	-0.01468
773.387	-0.01579	-0.01568	-0.01553	-0.01587	-0.01609	-0.01583	-0.01527	-0.01467
775.066	-0.01569	-0.01543	-0.01541	-0.01588	-0.01598	-0.01577	-0.01527	-0.01484
776.744	-0.01553	-0.01542	-0.01551	-0.0159	-0.01594	-0.01586	-0.01533	-0.01509
778.422	-0.0156	-0.01539	-0.01587	-0.01611	-0.01611	-0.01605	-0.01564	-0.01521
780.1	-0.01568	-0.01552	-0.0158	-0.01624	-0.01632	-0.0163	-0.01588	-0.01529
781.777	-0.01584	-0.01548	-0.01589	-0.01635	-0.01648	-0.01614	-0.01579	-0.01539
783.453	-0.01581	-0.01551	-0.01611	-0.01649	-0.0164	-0.01602	-0.01574	-0.01562
785.13	-0.01569	-0.01574	-0.01615	-0.01671	-0.01635	-0.01606	-0.01567	-0.0156
786.806	-0.01618	-0.01624	-0.01641	-0.01697	-0.01678	-0.0167	-0.01615	-0.0157
788.481	-0.01651	-0.01654	-0.01676	-0.01726	-0.01698	-0.01689	-0.01653	-0.0159
790.156	-0.01634	-0.01675	-0.01667	-0.01725	-0.01704	-0.01684	-0.01631	-0.01603
791.831	-0.01628	-0.0169	-0.01678	-0.01743	-0.0171	-0.01683	-0.0163	-0.01598
793.505	-0.01649	-0.01707	-0.01693	-0.01775	-0.01727	-0.01714	-0.01656	-0.01623
795.178	-0.01658	-0.01722	-0.01709	-0.01766	-0.01744	-0.01765	-0.01695	-0.01635
796.852	-0.01685	-0.01728	-0.01721	-0.01782	-0.01762	-0.01794	-0.01702	-0.01672
798.524	-0.01665	-0.01701	-0.01725	-0.01757	-0.01733	-0.01783	-0.01691	-0.01659
800.197	-0.01639	-0.01681	-0.01713	-0.0173	-0.01719	-0.01762	-0.01661	-0.01615
801.869	-0.01648	-0.01675	-0.01717	-0.01725	-0.01709	-0.01756	-0.01637	-0.01592
803.54	-0.01682	-0.01666	-0.01729	-0.01727	-0.017	-0.01747	-0.01617	-0.01592
805.211	-0.01664	-0.01676	-0.01715	-0.01729	-0.01707	-0.01727	-0.01606	-0.01573
806.882	-0.01656	-0.01656	-0.01694	-0.01728	-0.01701	-0.01711	-0.01589	-0.01562
808.552	-0.01671	-0.01657	-0.01738	-0.0173	-0.01701	-0.01691	-0.01591	-0.01568
810.221	-0.01688	-0.01675	-0.01743	-0.0175	-0.01736	-0.01698	-0.01572	-0.01576
811.89	-0.01699	-0.01685	-0.01755	-0.01749	-0.01736	-0.01688	-0.01564	-0.01604
813.559	-0.01696	-0.01688	-0.01773	-0.01767	-0.01766	-0.017	-0.01595	-0.0165
815.228	-0.01692	-0.0171	-0.01773	-0.01776	-0.01796	-0.01722	-0.01636	-0.01672
816.895	-0.01692	-0.01699	-0.0176	-0.01776	-0.01791	-0.01712	-0.01641	-0.01698
818.563	-0.01705	-0.0169	-0.01732	-0.01797	-0.01808	-0.01699	-0.01629	-0.01693
820.23	-0.01672	-0.01651	-0.01668	-0.01806	-0.01787	-0.01675	-0.01616	-0.01641
821.896	-0.01654	-0.01626	-0.01631	-0.01788	-0.01768	-0.01654	-0.01632	-0.01613
823.562	-0.01645	-0.01621	-0.01612	-0.01784	-0.01781	-0.0166	-0.01645	-0.01603
825.228	-0.01608	-0.01565	-0.01554	-0.01738	-0.01751	-0.01639	-0.0164	-0.01539
826.893	-0.01546	-0.01511	-0.01512	-0.01687	-0.01705	-0.01639	-0.01623	-0.01466
828.558	-0.01486	-0.01467	-0.0148	-0.01627	-0.01659	-0.01613	-0.01577	-0.01405
830.222	-0.01457	-0.01459	-0.01481	-0.01583	-0.01617	-0.01596	-0.01587	-0.01385
831.886	-0.01438	-0.01443	-0.01473	-0.0154	-0.01598	-0.01582	-0.01585	-0.01397
833.549	-0.01411	-0.01431	-0.0145	-0.01514	-0.01548	-0.01544	-0.01557	-0.01383
835.212	-0.01401	-0.01392	-0.01425	-0.01494	-0.01527	-0.01521	-0.0153	-0.01342
836.875	-0.01401	-0.01389	-0.0142	-0.01504	-0.01512	-0.01511	-0.01488	-0.0135
838.537	-0.01444	-0.01393	-0.01444	-0.01508	-0.01523	-0.015	-0.01463	-0.01373
840.198	-0.01449	-0.01396	-0.0144	-0.01498	-0.01507	-0.01522	-0.01482	-0.01382
841.859	-0.01387	-0.01355	-0.01417	-0.01469	-0.01475	-0.01492	-0.01434	-0.01357
843.52	-0.01381	-0.01351	-0.01429	-0.01512	-0.01502	-0.01516	-0.01459	-0.01347
845.18	-0.01321	-0.01292	-0.01407	-0.01489	-0.01498	-0.01511	-0.01438	-0.01317
846.84	-0.0129	-0.01266	-0.01362	-0.01458	-0.01447	-0.01457	-0.01403	-0.01316
848.499	-0.01235	-0.01231	-0.01313	-0.01404	-0.0138	-0.01396	-0.01355	-0.01285
850.158	-0.01142	-0.01199	-0.01243	-0.01341	-0.01301	-0.01316	-0.01304	-0.01239
851.816	-0.0113	-0.01194	-0.01223	-0.01331	-0.01293	-0.01267	-0.01277	-0.01229
853.474	-0.01136	-0.01186	-0.01215	-0.01316	-0.01264	-0.01249	-0.01235	-0.01215
855.131	-0.01113	-0.01198	-0.01178	-0.01234	-0.01195	-0.01196	-0.01186	-0.01156
856.788	-0.01117	-0.01211	-0.01174	-0.01239	-0.01173	-0.012	-0.01167	-0.01167
858.445	-0.01066	-0.0119	-0.01186	-0.01235	-0.0118	-0.01202	-0.01177	-0.01153
860.101	-0.01043	-0.01163	-0.01192	-0.01252	-0.01225	-0.01245	-0.01225	-0.01143
861.756	-0.01076	-0.01175	-0.01239	-0.01295	-0.01294	-0.01326	-0.01282	-0.01158
863.411	-0.0104	-0.01115	-0.01214	-0.01273	-0.01274	-0.01311	-0.01284	-0.01111
865.066	-0.01042	-0.01114	-0.01217	-0.01292	-0.013	-0.01341	-0.01316	-0.01078
866.72	-0.01037	-0.0109	-0.0122	-0.01312	-0.01324	-0.01329	-0.01312	-0.01094
868.374	-0.01023	-0.01083	-0.01202	-0.013	-0.0132	-0.01306	-0.01298	-0.01075
870.027	-0.01013	-0.01062	-0.01145	-0.01313	-0.01309	-0.01294	-0.01273	-0.01022
871.68	-0.01024	-0.01068	-0.01142	-0.01289	-0.01267	-0.01234	-0.01212	-0.00997
873.332	-0.00976	-0.01028	-0.01087	-0.01224	-0.01171	-0.01105	-0.01097	-0.00967
874.984	-0.00966	-0.01025	-0.01077	-0.01214	-0.01129	-0.01066	-0.01042	-0.0096
876.635	-0.00913	-0.00976	-0.01011	-0.01138	-0.01057	-0.00988	-0.00977	-0.00901
878.286	-0.009	-0.00908	-0.00966	-0.01076	-0.0103	-0.00943	-0.00953	-0.00854
879.936	-0.00878	-0.00836	-0.00944	-0.0105	-0.01031	-0.00917	-0.00954	-0.00784
881.586	-0.00861	-0.00795	-0.00932	-0.01007	-0.01016	-0.00898	-0.00901	-0.00765
883.235	-0.00826	-0.0076	-0.00885	-0.00963	-0.00985	-0.00875	-0.00896	-0.00745
884.884	-0.00796	-0.00724	-0.00828	-0.0093	-0.00966	-0.00906	-0.00931	-0.00705
886.533	-0.00751	-0.00683	-0.00796	-0.00898	-0.00951	-0.00887	-0.00921	-0.00668
888.181	-0.00765	-0.00706	-0.00831	-0.00921	-0.00968	-0.00918	-0.0094	-0.00719
889.828	-0.00734	-0.00741	-0.00841	-0.00943	-0.00957	-0.00951	-0.00902	-0.0074
891.475	-0.00698	-0.00737	-0.00823	-0.00937	-0.00923	-0.0093	-0.0086	-0.00744
893.122	-0.00706	-0.00776	-0.00876	-0.0096	-0.0091	-0.00945	-0.00886	-0.00751
894.768	-0.00683	-0.00752	-0.00872	-0.00942	-0.00904	-0.00944	-0.00876	-0.00742
896.414	-0.00685	-0.00751	-0.00886	-0.00941	-0.00904	-0.00917	-0.00854	-0.00734
898.059	-0.00693	-0.00765	-0.00846	-0.00939	-0.00895	-0.00927	-0.00841	-0.00767
899.704	-0.00651	-0.00693	-0.00783	-0.00858	-0.00836	-0.00906	-0.008	-0.00734
901.348	-0.00624	-0.00626	-0.00696	-0.00758	-0.00764	-0.00812	-0.00749	-0.00689
902.991	-0.00604	-0.00622	-0.0069	-0.00743	-0.00727	-0.00776	-0.00753	-0.00686
904.635	-0.00526	-0.00531	-0.00612	-0.0068	-0.00664	-0.00688	-0.00695	-0.00686
906.277	-0.00508	-0.00526	-0.00576	-0.00664	-0.00637	-0.00662	-0.00653	-0.00666
907.92	-0.00469	-0.00486	-0.00557	-0.00628	-0.0063	-0.00634	-0.00615	-0.00643
909.561	-0.00426	-0.00429	-0.00531	-0.00577	-0.00586	-0.00589	-0.00567	-0.00558
911.203	-0.00412	-0.00384	-0.00506	-0.00585	-0.00563	-0.00526	-0.00531	-0.00493
912.843	-0.0036	-0.00359	-0.00496	-0.00569	-0.00552	-0.00515	-0.00515	-0.0046
914.484	-0.00303	-0.00302	-0.00429	-0.0049	-0.0052	-0.00478	-0.00433	-0.00407
916.124	-0.00288	-0.00332	-0.004	-0.00435	-0.00488	-0.00455	-0.00406	-0.00334
917.763	-0.00234	-0.00301	-0.00367	-0.00373	-0.00426	-0.00388	-0.00351	-0.00277
919.402	-0.00143	-0.0024	-0.00256	-0.00266	-0.00315	-0.00281	-0.00256	-0.00199
921.04	-7.32923E-4	-0.00186	-0.00177	-0.00164	-0.00245	-0.00191	-0.00182	-0.00103
922.678	5.48501E-4	-0.00102	-7.67139E-4	-5.02478E-4	-0.00139	-5.79339E-4	-6.32529E-4	-2.95186E-4
924.315	0.00159	7.98086E-5	4.98714E-4	4.08065E-4	-7.28149E-5	6.35668E-4	8.85382E-4	9.29242E-4
925.952	0.00282	0.00135	0.00153	0.00152	0.00117	0.00202	0.00217	0.00209
927.589	0.00397	0.00288	0.00234	0.00239	0.00232	0.00309	0.00338	0.00339
929.225	0.00499	0.00441	0.00373	0.00375	0.00327	0.00419	0.00453	0.00478
930.86	0.00615	0.00603	0.00458	0.00453	0.0044	0.0052	0.00571	0.00629
932.495	0.00789	0.00754	0.00584	0.00569	0.00574	0.00676	0.00739	0.0075
934.129	0.00922	0.00863	0.00713	0.00711	0.00688	0.00811	0.0088	0.00922
935.763	0.01083	0.01033	0.00843	0.00866	0.00858	0.00975	0.01024	0.01082
937.397	0.01213	0.01206	0.01058	0.01083	0.0109	0.01151	0.01197	0.0132
939.03	0.01479	0.0144	0.01364	0.01391	0.01389	0.01464	0.01472	0.01552
940.662	0.01787	0.01732	0.01697	0.01683	0.01789	0.01796	0.0179	0.01894
942.294	0.02113	0.02075	0.02051	0.02017	0.02144	0.02209	0.02173	0.02276
943.926	0.02479	0.02493	0.02448	0.024	0.02636	0.02625	0.02555	0.02666
945.557	0.02954	0.03052	0.02949	0.02838	0.03109	0.03095	0.03083	0.0314
947.187	0.03459	0.0349	0.03369	0.03255	0.03492	0.03566	0.03523	0.03616
948.817	0.04009	0.04007	0.03795	0.03707	0.03896	0.04059	0.03967	0.04021
950.447	0.04614	0.04597	0.04343	0.04272	0.04379	0.04526	0.04516	0.04542
952.076	0.05148	0.0515	0.04909	0.04723	0.04917	0.05033	0.05066	0.05078
953.704	0.05655	0.05715	0.05477	0.05258	0.05419	0.05531	0.05614	0.05579
955.332	0.06123	0.06206	0.05893	0.05684	0.05803	0.05925	0.06056	0.06042
956.96	0.06485	0.06573	0.06271	0.06058	0.06235	0.06279	0.06402	0.06419
958.587	0.06866	0.0691	0.06715	0.06509	0.0666	0.06705	0.06742	0.06837
960.213	0.07195	0.07194	0.07056	0.06848	0.07019	0.07045	0.07087	0.07179
961.839	0.07455	0.07475	0.07409	0.07195	0.07354	0.07385	0.07394	0.07519
963.465	0.07681	0.07675	0.07618	0.0748	0.07594	0.07564	0.07584	0.07724
965.089	0.07826	0.07802	0.07727	0.07667	0.07759	0.07673	0.077	0.07814
966.714	0.07924	0.07832	0.07849	0.07794	0.07909	0.07823	0.07793	0.0787
968.338	0.08049	0.07936	0.07974	0.07945	0.08044	0.07971	0.07932	0.08002
969.961	0.08145	0.0803	0.07981	0.08021	0.081	0.08044	0.08026	0.08043
971.584	0.08151	0.08104	0.08007	0.08104	0.08165	0.08082	0.08066	0.08121
973.207	0.08122	0.08045	0.07951	0.0804	0.0809	0.08012	0.0803	0.08054
974.829	0.08087	0.08032	0.07955	0.08002	0.0804	0.08006	0.07984	0.08003
976.45	0.08093	0.08001	0.07965	0.07985	0.08019	0.08049	0.07972	0.08046
978.071	0.08101	0.08036	0.07951	0.07962	0.08014	0.08057	0.08	0.08073
979.691	0.08016	0.07966	0.07861	0.07878	0.07912	0.07977	0.07909	0.08005
981.311	0.07889	0.079	0.07829	0.07733	0.07822	0.07832	0.0783	0.07923
982.931	0.0786	0.07862	0.07844	0.07618	0.07732	0.07765	0.07753	0.07854
984.55	0.0781	0.07846	0.07791	0.07561	0.07677	0.07747	0.07693	0.07815
986.168	0.07732	0.07756	0.07663	0.07458	0.07556	0.07646	0.07611	0.0775
987.786	0.07659	0.0771	0.07602	0.0737	0.0746	0.07533	0.0752	0.07656
989.403	0.07506	0.07604	0.07489	0.07267	0.07338	0.07366	0.07362	0.0755
991.02	0.07427	0.07503	0.07386	0.07178	0.07218	0.07237	0.07255	0.07434
992.636	0.07349	0.07361	0.07249	0.07091	0.07094	0.07135	0.07121	0.07354
994.252	0.07156	0.07198	0.07053	0.06986	0.06967	0.06995	0.07023	0.0719
995.867	0.07149	0.069	0.06981	0.06832	0.06566	0.06893	0.06894	0.07466
997.482	0.06879	0.06824	0.06433	0.0632	0.06444	0.06292	0.06379	0.06717
999.096	0.06603	0.06632	0.06739	0.06878	0.0669	0.06528	0.06656	0.06837
1000.172	0.06202	0.06421	0.06299	0.06783	0.06461	0.06441	0.06465	0.06691