File: Methylene_blue.dat
# Methylene blue
# Wavelength(nm) Absorbance(a.u.)
#	A.M. 195 min	A.M. 120 min	A.M. 90 min	A.M. 60 min	A.M. 30 min	A.M. 15 min	A.M. 5 min	A.M. 0 min
199.408	-0.06417	-0.03533	-0.00818	 0.0129	         0.01452	-0.00598	0.02573	          -0.01275
201.196	-0.06657	 0.01591	-0.01598	 0.00265 	 0.02677	-0.01577	0.0459	           0.02327
202.984	-0.00781	 0.02357	 0.03749	 0.01967	 0.01151	 0.06892	0.04156	           0.02259
204.772	-0.03967	-0.03744	-0.01785	-0.00866	-0.01363	-0.00603	0.06008	           0.07686
206.56	-0.06603	-0.02162	-0.01045	-0.01015	 0.00774	 0.00516	0.0172	           0.01731
208.347	-0.06605	-0.02321	-0.01262	-0.00688	 0.01373	 0.00477	0.01473	           0.01506
210.134	-0.06867	-0.02944	-0.01534	-0.00912	 0.01424	-0.00418	0.01334	           0.01625
211.921	-0.06634	-0.03207	-0.01827	-0.01275	 0.01222	-0.00507	0.01237	           0.01125
213.707	-0.07107	-0.03282	-0.01967	-0.01562	 0.00312	-0.00999	0.00871	           0.01104
215.494	-0.06646	-0.03084	-0.01742	-0.01354	 0.00812	-0.00717	0.01104	           0.01326
217.28	-0.06426	-0.02176	-0.0121	        -0.01231	 0.01413	-0.00244	0.01194	           0.01748
219.066	-0.06449	-0.02266	-0.01191	-0.01125	 0.01673	-0.0011	        0.01146	           0.01984
220.851	-0.06563	-0.02168	-0.01215	-0.01402	 0.01144	-0.00148	0.01112	           0.01906
222.637	-0.0638	        -0.01574	-0.00473	-0.00618	 0.01207	 0.00729	0.01665	           0.0212
224.422	-0.06385	-0.00732	9.42162E-4	-5.42202E-4	 0.01952	 0.01254	0.01795	           0.02114
226.207	-0.06328	-0.00858	0.00124	0.00383	0.02247	0.01435	0.01438	0.02365
227.991	-0.06923	-0.01733	-0.00488	-2.77458E-4	0.01875	0.00692	0.00676	0.01545
229.776	-0.0667	-0.01954	-0.00299	0.00384	0.02202	0.00455	0.01239	0.01389
231.56	-0.06358	-0.01712	-0.00112	0.00171	0.01802	0.01005	0.01027	0.01238
233.344	-0.06131	-0.01523	0.00479	0.00568	0.02219	0.01161	0.01366	0.01654
235.128	-0.05794	-0.01429	0.00477	0.00454	0.02572	0.01015	0.01101	0.0209
236.911	-0.05111	-0.01209	0.00896	0.00965	0.02668	0.0161	0.01809	0.02798
238.694	-0.04378	-0.00486	0.01195	0.01352	0.03152	0.0233	0.02528	0.02903
240.477	-0.0418	0.00138	0.01785	0.01852	0.03179	0.02902	0.03146	0.039
242.26	-0.03396	0.00649	0.0222	0.02246	0.03953	0.03574	0.03555	0.04422
244.043	-0.03293	0.00931	0.0267	0.02683	0.04423	0.03546	0.04334	0.05225
245.825	-0.02763	0.0136	0.02693	0.02789	0.04608	0.03907	0.04509	0.05762
247.607	-0.02384	0.0168	0.02987	0.03062	0.04728	0.04213	0.04963	0.06038
249.389	-0.02537	0.01351	0.02811	0.02561	0.04616	0.03421	0.04359	0.05687
251.17	-0.02543	0.0152	0.02866	0.02478	0.04523	0.03402	0.0451	0.05616
252.952	-0.01979	0.02195	0.03264	0.02872	0.05108	0.03769	0.04851	0.06048
254.733	-0.01964	0.0225	0.03459	0.0284	0.04749	0.03753	0.04887	0.05891
256.513	-0.01383	0.02263	0.0361	0.03182	0.04957	0.0417	0.05171	0.05879
258.294	-0.00976	0.02458	0.04042	0.03576	0.05502	0.04515	0.05459	0.06325
260.074	-0.00706	0.02857	0.0424	0.03844	0.05763	0.05046	0.06009	0.06329
261.854	-0.00135	0.03313	0.04729	0.04432	0.0617	0.05824	0.06665	0.06928
263.634	0.00642	0.0365	0.05423	0.05003	0.06771	0.06697	0.07434	0.07693
265.414	0.01009	0.03741	0.05629	0.05587	0.07436	0.07325	0.08211	0.08142
267.193	0.0149	0.04484	0.06334	0.06524	0.08487	0.08574	0.09135	0.0947
268.972	0.01858	0.05238	0.07049	0.07356	0.09574	0.09674	0.09976	0.10486
270.751	0.02338	0.0586	0.08034	0.08364	0.10705	0.11048	0.11222	0.11532
272.529	0.02689	0.06557	0.08965	0.09414	0.11978	0.12271	0.12401	0.12911
274.307	0.03079	0.07545	0.09889	0.10766	0.1344	0.13775	0.13774	0.14375
276.086	0.03541	0.08758	0.11095	0.12051	0.15038	0.15321	0.15165	0.15844
277.863	0.03911	0.1	0.12449	0.13288	0.16625	0.16803	0.16832	0.17704
279.641	0.04567	0.1127	0.13752	0.14893	0.18414	0.18504	0.18824	0.1958
281.418	0.04965	0.12453	0.15092	0.1655	0.20209	0.2037	0.20689	0.21485
283.195	0.0534	0.13806	0.16487	0.18456	0.22242	0.22493	0.22915	0.23728
284.972	0.05744	0.15041	0.17877	0.19983	0.24131	0.24379	0.24697	0.25778
286.748	0.06224	0.15929	0.19042	0.213	0.2552	0.25958	0.26304	0.27382
288.524	0.06464	0.16425	0.19749	0.22404	0.26414	0.27051	0.27511	0.28576
290.3	0.0661	0.16634	0.19979	0.22891	0.26869	0.27778	0.27908	0.29029
292.076	0.06697	0.16492	0.19795	0.22692	0.26681	0.27673	0.27699	0.28666
293.852	0.06782	0.1609	0.19137	0.22067	0.25805	0.26812	0.26883	0.27916
295.627	0.06891	0.15303	0.18238	0.20868	0.2442	0.25305	0.25308	0.26417
297.402	0.06744	0.14196	0.16902	0.1941	0.22526	0.23399	0.2333	0.245
299.176	0.06449	0.13046	0.15491	0.17717	0.20493	0.21358	0.2126	0.2244
300.951	0.06214	0.11872	0.14069	0.16033	0.1854	0.19282	0.1922	0.20332
302.725	0.06024	0.10835	0.12743	0.14388	0.16562	0.17203	0.17158	0.18286
304.499	0.05738	0.09878	0.11567	0.12919	0.14734	0.1526	0.15233	0.16413
306.272	0.05509	0.08962	0.10425	0.11551	0.13021	0.1354	0.13482	0.1465
308.046	0.05292	0.0815	0.0946	0.10472	0.11631	0.12169	0.12089	0.1325
309.819	0.05168	0.07644	0.08771	0.09655	0.1064	0.11095	0.11109	0.12168
311.591	0.05067	0.07261	0.0833	0.09012	0.09967	0.10237	0.10326	0.11372
313.364	0.05094	0.07115	0.08032	0.08609	0.09519	0.09759	0.09785	0.10872
315.136	0.05106	0.06919	0.07839	0.08363	0.09157	0.09346	0.09332	0.10445
316.908	0.05123	0.06752	0.07659	0.08163	0.08902	0.0901	0.09011	0.10105
318.68	0.05067	0.06601	0.07546	0.0794	0.08705	0.08742	0.08792	0.09848
320.451	0.05058	0.06537	0.07418	0.07768	0.08495	0.08479	0.08548	0.09659
322.223	0.05089	0.06431	0.07298	0.07618	0.08302	0.0826	0.0831	0.09428
323.994	0.05025	0.0637	0.07051	0.0743	0.08046	0.08033	0.08045	0.09178
325.764	0.04961	0.06188	0.06864	0.07158	0.07732	0.07716	0.07691	0.08835
327.535	0.04926	0.05966	0.06558	0.06885	0.07385	0.07366	0.07416	0.08465
329.305	0.0475	0.05671	0.06151	0.0645	0.06885	0.06906	0.06935	0.07976
331.074	0.04628	0.05402	0.05781	0.06068	0.06431	0.06462	0.06429	0.07489
332.844	0.04392	0.0511	0.0535	0.05663	0.05921	0.05925	0.05897	0.069
334.613	0.0418	0.04776	0.04905	0.05189	0.05351	0.05373	0.05328	0.06327
336.382	0.04024	0.04433	0.04568	0.04823	0.04848	0.049	0.04803	0.05804
338.151	0.03806	0.04087	0.04175	0.04398	0.04374	0.04438	0.04341	0.05332
339.919	0.03555	0.03778	0.03824	0.04015	0.0389	0.03928	0.03836	0.0485
341.688	0.03411	0.035	0.03594	0.03719	0.03547	0.03594	0.03483	0.04526
343.455	0.03303	0.03289	0.03386	0.03451	0.03293	0.0329	0.03206	0.04238
345.223	0.03206	0.03093	0.03229	0.03192	0.03038	0.03093	0.03007	0.04015
346.99	0.03082	0.02868	0.03026	0.02952	0.02833	0.02887	0.02817	0.03784
348.757	0.02943	0.02717	0.02825	0.02725	0.0266	0.02655	0.02647	0.0356
350.524	0.0274	0.02512	0.02626	0.02576	0.02448	0.02432	0.02441	0.03334
352.291	0.02624	0.02362	0.02446	0.02356	0.02281	0.02279	0.02291	0.0319
354.057	0.02486	0.02254	0.02304	0.022	0.0219	0.02128	0.02151	0.03058
355.823	0.0237	0.02129	0.02129	0.02079	0.02042	0.0199	0.02028	0.02897
357.588	0.02315	0.02028	0.01973	0.01967	0.01968	0.01852	0.0192	0.02804
359.354	0.02268	0.01942	0.01962	0.01952	0.01958	0.01831	0.01888	0.0276
361.119	0.02214	0.01817	0.01834	0.01877	0.0187	0.01726	0.01844	0.02687
362.884	0.02228	0.01813	0.01819	0.01897	0.01865	0.01699	0.01836	0.0268
364.648	0.02156	0.01769	0.01742	0.01893	0.01827	0.01665	0.01792	0.02649
366.412	0.02167	0.01785	0.01771	0.0194	0.01831	0.01713	0.01852	0.0269
368.176	0.02125	0.01752	0.01764	0.0191	0.01813	0.01711	0.01847	0.02667
369.94	0.02097	0.01736	0.01803	0.01935	0.0184	0.01783	0.01854	0.02701
371.703	0.02048	0.01745	0.01766	0.01933	0.01804	0.01778	0.01866	0.02708
373.466	0.01988	0.01766	0.01785	0.01937	0.01842	0.01832	0.01842	0.02775
375.229	0.01888	0.01684	0.01725	0.01837	0.01812	0.01836	0.01791	0.02768
376.992	0.01826	0.01658	0.01765	0.01851	0.01861	0.0191	0.01833	0.02796
378.754	0.01758	0.01617	0.01721	0.01796	0.01841	0.01866	0.01809	0.02786
380.516	0.01649	0.01565	0.01658	0.01755	0.01803	0.01829	0.01798	0.02764
382.277	0.01518	0.015	0.01598	0.01711	0.01732	0.01772	0.0179	0.02734
384.039	0.0141	0.01445	0.01588	0.01674	0.01744	0.01757	0.01724	0.02735
385.8	0.01377	0.01421	0.01578	0.01672	0.01753	0.01757	0.01749	0.02727
387.56	0.01391	0.01444	0.01603	0.01718	0.01784	0.01752	0.01814	0.02724
389.321	0.01401	0.01416	0.01605	0.01679	0.01803	0.01707	0.01831	0.02708
391.081	0.01326	0.01332	0.01524	0.01646	0.01763	0.01674	0.01761	0.02674
392.841	0.01326	0.01312	0.01527	0.01683	0.01794	0.01679	0.01767	0.02691
394.6	0.01313	0.01271	0.01521	0.01647	0.01787	0.01634	0.01717	0.0263
396.36	0.01322	0.01248	0.01455	0.01622	0.01733	0.01635	0.01706	0.02608
398.119	0.01271	0.01192	0.01453	0.01561	0.01671	0.0159	0.01676	0.0255
399.877	0.01233	0.01123	0.01391	0.01498	0.01563	0.01534	0.01596	0.0248
401.636	0.01203	0.01095	0.01336	0.01444	0.01478	0.01476	0.01531	0.02461
403.394	0.01226	0.01094	0.01328	0.01433	0.01456	0.01472	0.01526	0.02421
405.151	0.01205	0.01047	0.01273	0.01335	0.0139	0.01417	0.01452	0.02345
406.909	0.0119	0.01012	0.01235	0.01304	0.01332	0.01378	0.01422	0.02319
408.666	0.0115	0.00957	0.01213	0.01257	0.01289	0.01293	0.01362	0.0224
410.423	0.01131	0.00879	0.01125	0.01201	0.01226	0.01199	0.01285	0.02165
412.179	0.01114	0.00829	0.01094	0.01172	0.01205	0.01191	0.01262	0.02141
413.936	0.01108	0.00825	0.01074	0.01126	0.01196	0.01155	0.01222	0.02059
415.692	0.01112	0.00816	0.01078	0.01101	0.01175	0.01122	0.01212	0.02036
417.447	0.01096	0.0081	0.01078	0.01127	0.01166	0.01119	0.01215	0.02053
419.203	0.01088	0.00804	0.01043	0.01123	0.01175	0.01106	0.01215	0.02058
420.958	0.01096	0.00815	0.01028	0.01119	0.01176	0.01139	0.01238	0.02065
422.712	0.01103	0.00872	0.01064	0.01145	0.01254	0.01213	0.01302	0.02121
424.467	0.01093	0.00918	0.01075	0.01145	0.0127	0.01226	0.01337	0.02159
426.221	0.01006	0.00897	0.01065	0.01183	0.01268	0.0126	0.0135	0.02197
427.975	0.0095	0.00872	0.01021	0.01171	0.01279	0.01251	0.0138	0.02214
429.728	0.00931	0.00906	0.01062	0.0119	0.01326	0.01301	0.01434	0.02262
431.481	0.00901	0.00912	0.01091	0.01192	0.01386	0.01334	0.01467	0.02327
433.234	0.00873	0.00906	0.01096	0.01199	0.01389	0.01336	0.01489	0.02362
434.987	0.0085	0.009	0.01102	0.01213	0.01389	0.01339	0.01521	0.02389
436.739	0.00858	0.00911	0.01136	0.01289	0.01449	0.0137	0.01549	0.02454
438.491	0.00907	0.00937	0.01174	0.01332	0.01495	0.01445	0.01611	0.02537
440.243	0.00916	0.00975	0.01233	0.01389	0.01533	0.01537	0.01643	0.02595
441.994	0.0088	0.00962	0.01235	0.01407	0.01547	0.01568	0.01668	0.0262
443.745	0.00871	0.01015	0.01279	0.01464	0.01583	0.01638	0.01729	0.02624
445.496	0.00899	0.01047	0.0137	0.01571	0.01681	0.01743	0.01811	0.02751
447.246	0.00873	0.01059	0.01391	0.01603	0.01709	0.01814	0.01859	0.02787
448.996	0.00823	0.01062	0.01398	0.01589	0.01778	0.01848	0.01907	0.02801
450.746	0.00793	0.01044	0.01413	0.01625	0.01847	0.01879	0.01957	0.02807
452.495	0.00793	0.01062	0.01453	0.01664	0.01939	0.01937	0.02032	0.02885
454.244	0.0084	0.01122	0.015	0.01756	0.02068	0.02051	0.02142	0.0299
455.993	0.0085	0.01138	0.0153	0.01794	0.02143	0.02126	0.02242	0.03055
457.742	0.00872	0.01227	0.01563	0.01827	0.02205	0.02161	0.02292	0.03089
459.49	0.00863	0.01261	0.01666	0.01918	0.0229	0.02236	0.02372	0.03182
461.238	0.00912	0.01343	0.01764	0.01999	0.02369	0.02351	0.02479	0.03308
462.985	0.00921	0.01438	0.01815	0.02046	0.02418	0.02427	0.02568	0.03403
464.732	0.00883	0.01459	0.01853	0.0211	0.0248	0.025	0.02639	0.03454
466.479	0.00855	0.01448	0.01903	0.02129	0.02475	0.0252	0.02655	0.03465
468.226	0.0086	0.01511	0.01976	0.0219	0.02558	0.02618	0.02713	0.03594
469.972	0.00792	0.01467	0.02001	0.02194	0.02605	0.02695	0.02781	0.03656
471.718	0.00828	0.0154	0.02055	0.02234	0.02696	0.02802	0.02877	0.03749
473.463	0.00802	0.01543	0.02102	0.02267	0.02764	0.02839	0.02914	0.03774
475.209	0.00823	0.01528	0.02142	0.02336	0.02825	0.02914	0.02958	0.0384
476.954	0.00742	0.01442	0.0207	0.02212	0.02705	0.02818	0.02872	0.03762
478.698	0.00773	0.01498	0.02092	0.02263	0.02767	0.02864	0.0289	0.03828
480.442	0.00902	0.01614	0.02216	0.02417	0.02905	0.03016	0.03017	0.03993
482.186	0.00925	0.01682	0.02274	0.02498	0.02988	0.0308	0.03105	0.04044
483.93	0.00908	0.01682	0.02266	0.02529	0.03002	0.03098	0.0314	0.04085
485.673	0.00911	0.01718	0.02295	0.02577	0.03077	0.03179	0.03208	0.04146
487.416	0.00869	0.01725	0.02328	0.02604	0.03134	0.03218	0.03285	0.04182
489.159	0.00952	0.01857	0.02475	0.0279	0.03365	0.03437	0.03476	0.04387
490.901	0.00985	0.01946	0.02615	0.02947	0.03562	0.03639	0.03723	0.04574
492.643	0.00833	0.01875	0.02586	0.029	0.03569	0.03625	0.03772	0.04554
494.385	0.00818	0.01873	0.02606	0.0294	0.03623	0.03715	0.03833	0.04659
496.126	0.00837	0.01892	0.02662	0.03009	0.03739	0.03769	0.03913	0.04768
497.867	0.00811	0.01877	0.02662	0.03037	0.03724	0.03803	0.03935	0.04806
499.608	0.00833	0.01925	0.02692	0.03028	0.03746	0.03845	0.03941	0.04884
501.348	0.00817	0.01927	0.0267	0.0304	0.03734	0.03851	0.03928	0.049
503.088	0.00778	0.01918	0.02648	0.03014	0.037	0.03813	0.039	0.04894
504.828	0.00776	0.01894	0.02591	0.02976	0.03669	0.03785	0.03839	0.04866
506.567	0.00774	0.01874	0.02554	0.02947	0.03655	0.03735	0.03789	0.04838
508.306	0.00774	0.0187	0.02587	0.02929	0.03635	0.03752	0.03807	0.04825
510.045	0.00768	0.01886	0.02596	0.02952	0.03658	0.03772	0.03832	0.0483
511.783	0.00777	0.01941	0.02621	0.02989	0.037	0.03813	0.03871	0.04869
513.521	0.00772	0.01978	0.02663	0.03012	0.03736	0.03849	0.03941	0.04922
515.258	0.00775	0.01996	0.02675	0.03048	0.03804	0.03904	0.03999	0.04959
516.996	0.00803	0.02064	0.02772	0.03144	0.03913	0.03988	0.04104	0.05027
518.733	0.00771	0.02095	0.02822	0.03186	0.03974	0.04061	0.04173	0.05089
520.469	0.0074	0.02106	0.02814	0.03237	0.04021	0.04101	0.04215	0.05127
522.205	0.00727	0.02095	0.0285	0.03266	0.04033	0.04103	0.04221	0.05157
523.941	0.00702	0.02044	0.02848	0.03267	0.04026	0.04116	0.04236	0.05141
525.677	0.00699	0.02042	0.02845	0.03324	0.04055	0.04159	0.04268	0.05173
527.412	0.00725	0.02063	0.02871	0.03394	0.04089	0.04208	0.0432	0.05235
529.147	0.00708	0.02108	0.02906	0.03438	0.04153	0.04294	0.04416	0.05339
530.882	0.00722	0.02192	0.02976	0.03542	0.04253	0.04399	0.04546	0.05443
532.616	0.00769	0.02275	0.03077	0.0366	0.04399	0.04549	0.04698	0.05581
534.35	0.00798	0.02351	0.03165	0.03781	0.04545	0.04699	0.04868	0.05743
536.083	0.00834	0.02461	0.03283	0.03922	0.04704	0.04865	0.05042	0.05915
537.816	0.00864	0.02577	0.03444	0.04084	0.04902	0.05085	0.05275	0.06123
539.549	0.00884	0.02714	0.03596	0.04275	0.05145	0.05341	0.05547	0.06384
541.282	0.00931	0.02871	0.03815	0.04527	0.05453	0.05654	0.05876	0.06685
543.014	0.00986	0.03032	0.04053	0.04802	0.05781	0.06015	0.06225	0.07031
544.745	0.00995	0.03172	0.04244	0.0504	0.06082	0.06339	0.06539	0.0736
546.477	0.01018	0.03337	0.04462	0.05296	0.06398	0.06681	0.06876	0.07696
548.208	0.01052	0.03519	0.04691	0.05589	0.06758	0.07064	0.07255	0.08081
549.939	0.01096	0.03716	0.04923	0.05889	0.07129	0.07439	0.07645	0.08471
551.669	0.01158	0.03938	0.05217	0.06225	0.07549	0.07871	0.08073	0.08904
553.399	0.01188	0.04146	0.05473	0.06566	0.07947	0.08299	0.08502	0.0934
555.129	0.01224	0.04361	0.05741	0.06888	0.08351	0.08713	0.08935	0.09762
556.858	0.01274	0.04593	0.06024	0.07233	0.08752	0.09123	0.09375	0.10175
558.587	0.01337	0.04833	0.06317	0.07581	0.09163	0.09549	0.09805	0.10605
560.315	0.01382	0.05048	0.06609	0.07925	0.09576	0.09976	0.10247	0.11038
562.044	0.01428	0.05282	0.06904	0.08283	0.10011	0.10428	0.10716	0.1149
563.772	0.0148	0.05539	0.07233	0.08674	0.10464	0.10923	0.11214	0.11959
565.499	0.01548	0.05816	0.07589	0.09092	0.10975	0.11444	0.11754	0.12464
567.226	0.01614	0.06102	0.07968	0.09541	0.11498	0.11994	0.12315	0.13025
568.953	0.01692	0.0641	0.08378	0.10013	0.12074	0.12582	0.1292	0.1361
570.679	0.0175	0.06713	0.08767	0.10482	0.12651	0.13183	0.13536	0.14199
572.406	0.01834	0.07056	0.09187	0.10986	0.13261	0.13821	0.1418	0.14825
574.131	0.01943	0.07429	0.09671	0.11555	0.13942	0.14522	0.14892	0.15536
575.857	0.02041	0.0783	0.10192	0.1215	0.14686	0.15286	0.15677	0.16317
577.582	0.02158	0.08281	0.10771	0.1283	0.15519	0.16152	0.16546	0.17198
579.306	0.02283	0.08768	0.11399	0.13562	0.16435	0.17102	0.175	0.1815
581.031	0.02413	0.09304	0.12074	0.14358	0.17425	0.1814	0.18546	0.19194
582.754	0.02561	0.09872	0.12826	0.15229	0.18492	0.19259	0.19668	0.20329
584.478	0.027	0.10453	0.1361	0.16136	0.19628	0.20443	0.20858	0.21524
586.201	0.02821	0.11053	0.14421	0.17085	0.20821	0.21702	0.22114	0.22786
587.924	0.02968	0.11696	0.15266	0.18105	0.22091	0.23028	0.23442	0.24123
589.646	0.03112	0.12347	0.16143	0.19134	0.23402	0.24408	0.24824	0.25501
591.369	0.03259	0.13019	0.17046	0.20206	0.24757	0.25842	0.26257	0.26933
593.09	0.03405	0.13691	0.17955	0.21286	0.26139	0.27304	0.27704	0.284
594.812	0.03544	0.14359	0.18852	0.22351	0.27523	0.28759	0.29161	0.29879
596.533	0.03692	0.15039	0.19757	0.23428	0.28908	0.30227	0.30621	0.31359
598.253	0.0384	0.15699	0.2065	0.24486	0.30282	0.31675	0.32055	0.32823
599.974	0.0398	0.16344	0.21523	0.25505	0.31616	0.33097	0.33459	0.34246
601.693	0.04107	0.16957	0.22335	0.26475	0.32864	0.3442	0.34767	0.35595
603.413	0.04234	0.17526	0.23095	0.27378	0.34017	0.35658	0.35991	0.36842
605.132	0.04354	0.18041	0.23786	0.28181	0.35039	0.36747	0.37058	0.37954
606.851	0.04457	0.1849	0.24374	0.28878	0.35905	0.37676	0.37954	0.38868
608.569	0.04532	0.18854	0.24865	0.29429	0.36597	0.38395	0.38673	0.39596
610.287	0.04617	0.19195	0.25269	0.29877	0.37132	0.38964	0.39236	0.40153
612.005	0.04689	0.19455	0.25585	0.3022	0.37504	0.39338	0.39603	0.40548
613.722	0.04756	0.19667	0.25829	0.30467	0.37738	0.39581	0.39839	0.40782
615.439	0.04808	0.19842	0.26015	0.30623	0.37877	0.39684	0.39941	0.4089
617.156	0.0486	0.19987	0.26162	0.30732	0.37945	0.39727	0.39966	0.40914
618.872	0.04925	0.20139	0.26308	0.30842	0.38001	0.39758	0.39985	0.40931
620.587	0.05008	0.20321	0.26469	0.30994	0.38074	0.39822	0.40023	0.40979
622.303	0.0508	0.20504	0.26663	0.31164	0.38197	0.39897	0.40097	0.41057
624.018	0.05162	0.20735	0.26911	0.314	0.38401	0.40083	0.40276	0.41221
625.733	0.05241	0.21015	0.27237	0.31716	0.38723	0.40384	0.40561	0.41506
627.447	0.05343	0.21373	0.27652	0.32164	0.39167	0.40845	0.40997	0.4195
629.161	0.05461	0.21814	0.28175	0.3274	0.39791	0.41474	0.41632	0.42576
630.874	0.05602	0.22347	0.28824	0.33448	0.40586	0.4229	0.42445	0.43397
632.587	0.05745	0.22944	0.29573	0.34255	0.41556	0.43282	0.43423	0.44379
634.3	0.05902	0.23618	0.30414	0.35205	0.42677	0.44462	0.44572	0.45534
636.012	0.06059	0.24339	0.31342	0.36249	0.43933	0.45784	0.45875	0.46851
637.724	0.06236	0.2512	0.32349	0.37389	0.45337	0.47234	0.47317	0.48312
639.436	0.06413	0.25956	0.33417	0.38615	0.4686	0.48807	0.48878	0.49898
641.147	0.06598	0.26826	0.34555	0.39917	0.48471	0.50507	0.50554	0.51589
642.858	0.06776	0.27729	0.35762	0.4132	0.50226	0.52342	0.52374	0.53445
644.568	0.06944	0.28636	0.36984	0.42768	0.52033	0.54249	0.54275	0.55382
646.278	0.07091	0.29544	0.38228	0.44213	0.53874	0.56196	0.56191	0.57352
647.988	0.07223	0.30393	0.39395	0.456	0.55662	0.58091	0.58043	0.59267
649.697	0.0734	0.3118	0.40486	0.4692	0.5734	0.59908	0.59832	0.61098
651.406	0.07434	0.31853	0.41466	0.48079	0.58861	0.61553	0.6146	0.62772
653.115	0.07482	0.3243	0.42295	0.49108	0.60221	0.63019	0.62891	0.64285
654.823	0.07488	0.32929	0.43033	0.5001	0.61449	0.64363	0.64215	0.65653
656.531	0.07486	0.33369	0.43691	0.50857	0.62592	0.65637	0.65451	0.66947
658.238	0.0745	0.33678	0.44199	0.51537	0.63543	0.6671	0.66526	0.6806
659.945	0.07382	0.33852	0.44535	0.52009	0.64262	0.67536	0.67365	0.68932
661.651	0.07266	0.33838	0.44627	0.52201	0.64656	0.68016	0.67826	0.69447
663.358	0.07099	0.33593	0.44397	0.52038	0.64587	0.68022	0.67804	0.69462
665.063	0.06882	0.33061	0.43788	0.51397	0.63958	0.67408	0.67196	0.68878
666.769	0.0662	0.32225	0.4277	0.50294	0.62698	0.66162	0.6591	0.67624
668.474	0.06307	0.31078	0.41329	0.48634	0.60741	0.64133	0.63874	0.6561
670.178	0.05925	0.2959	0.39403	0.46418	0.58047	0.61311	0.61029	0.62772
671.882	0.05486	0.27768	0.37025	0.4366	0.54652	0.57737	0.57454	0.59171
673.586	0.05006	0.2568	0.34279	0.40468	0.50672	0.53545	0.53269	0.54951
675.29	0.04474	0.23385	0.31259	0.36938	0.46264	0.48899	0.48669	0.50289
676.993	0.03942	0.21032	0.28161	0.33328	0.4174	0.4414	0.43935	0.45464
678.695	0.03414	0.18718	0.25102	0.29763	0.37289	0.39434	0.39254	0.40708
680.397	0.02904	0.16454	0.22112	0.26281	0.32944	0.34841	0.34693	0.36075
682.099	0.02429	0.14285	0.19252	0.22938	0.2877	0.30444	0.30323	0.31635
683.801	0.01958	0.12221	0.1653	0.19765	0.24812	0.26265	0.26174	0.27408
685.502	0.01496	0.10268	0.13961	0.16782	0.21104	0.22349	0.22289	0.23449
687.202	0.01074	0.08464	0.11598	0.14022	0.17686	0.18756	0.18699	0.19802
688.902	0.00689	0.06848	0.09472	0.11545	0.14624	0.15509	0.15481	0.16544
690.602	0.00367	0.05493	0.07699	0.09462	0.12056	0.12801	0.12801	0.1382
692.302	7.62605E-4	0.04363	0.06225	0.07739	0.09931	0.10563	0.10579	0.11561
694.001	-0.00182	0.03413	0.04994	0.06297	0.08148	0.08681	0.08722	0.09673
695.699	-0.00376	0.02631	0.03976	0.051	0.06662	0.0712	0.07176	0.08107
697.397	-0.00538	0.0198	0.03128	0.04091	0.05421	0.0582	0.05879	0.06799
699.095	-0.0068	0.01429	0.02412	0.03248	0.04387	0.04713	0.04795	0.05696
700.792	-0.008	0.00965	0.01815	0.02542	0.0351	0.03805	0.03884	0.04769
702.489	-0.00886	0.00592	0.01337	0.01972	0.02791	0.03049	0.03135	0.03999
704.186	-0.00959	0.00283	0.00924	0.01489	0.0218	0.02407	0.02497	0.03345
705.882	-0.01017	1.94911E-4	0.00584	0.01079	0.01668	0.01869	0.01959	0.02799
707.578	-0.01071	-0.00197	0.00294	0.00737	0.0125	0.01426	0.01518	0.0236
709.273	-0.01098	-0.00358	8.24763E-4	0.0047	0.00919	0.01068	0.01167	0.02
710.968	-0.01131	-0.00506	-0.00126	0.00242	0.00626	0.00765	0.00862	0.01683
712.663	-0.01179	-0.00643	-0.00307	2.47575E-4	0.00359	0.00492	0.00596	0.01412
714.357	-0.01215	-0.0076	-0.00465	-0.00159	0.00143	0.00264	0.00371	0.01186
716.05	-0.01262	-0.00878	-0.00609	-0.0033	-5.54621E-4	6.80766E-4	0.00172	0.00989
717.744	-0.01289	-0.00962	-0.00722	-0.00469	-0.00209	-9.62065E-4	2.10787E-5	0.00818
719.437	-0.01316	-0.01045	-0.00817	-0.00583	-0.00357	-0.00258	-0.00148	0.00645
721.129	-0.01348	-0.01128	-0.00916	-0.00687	-0.00492	-0.00399	-0.00296	0.00513
722.821	-0.01358	-0.01175	-0.00967	-0.00766	-0.0059	-0.00501	-0.0041	0.00416
724.513	-0.01353	-0.01206	-0.01019	-0.00821	-0.00661	-0.00592	-0.00496	0.00331
726.204	-0.01372	-0.01258	-0.01075	-0.00893	-0.00752	-0.00687	-0.006	0.00235
727.895	-0.01339	-0.01255	-0.01068	-0.00908	-0.00779	-0.0073	-0.00636	0.00201
729.585	-0.01337	-0.01277	-0.01099	-0.00944	-0.00829	-0.00783	-0.00688	0.00158
731.275	-0.01333	-0.01284	-0.01122	-0.0097	-0.00867	-0.00812	-0.00726	0.00132
732.965	-0.01331	-0.01296	-0.01147	-0.01009	-0.00914	-0.00858	-0.00763	7.78044E-4
734.654	-0.01328	-0.01304	-0.01167	-0.0104	-0.00955	-0.00903	-0.00797	3.25241E-4
736.342	-0.01331	-0.01328	-0.01177	-0.01064	-0.00992	-0.00943	-0.0084	-3.1225E-5
738.031	-0.01325	-0.01334	-0.01195	-0.01077	-0.01021	-0.00978	-0.00871	-3.62815E-4
739.718	-0.01356	-0.0138	-0.01258	-0.01128	-0.01089	-0.01051	-0.00946	-0.00117
741.406	-0.0136	-0.01398	-0.01283	-0.01159	-0.01135	-0.0109	-0.00992	-0.0017
743.093	-0.01366	-0.01415	-0.01306	-0.01198	-0.01165	-0.01133	-0.0105	-0.00213
744.78	-0.01367	-0.0143	-0.01336	-0.01234	-0.01195	-0.01171	-0.0109	-0.00239
746.466	-0.01371	-0.01454	-0.01361	-0.01266	-0.01223	-0.0121	-0.01129	-0.00274
748.151	-0.01392	-0.01481	-0.01408	-0.01305	-0.01262	-0.01256	-0.01168	-0.00323
749.837	-0.0142	-0.01514	-0.01446	-0.01362	-0.01312	-0.01307	-0.01215	-0.00366
751.522	-0.01429	-0.01517	-0.01452	-0.0136	-0.01335	-0.01331	-0.01239	-0.00382
753.206	-0.01448	-0.01541	-0.01482	-0.01385	-0.0136	-0.01367	-0.0127	-0.00407
754.89	-0.01474	-0.01577	-0.0152	-0.01416	-0.01408	-0.01409	-0.0131	-0.00461
756.574	-0.01527	-0.01613	-0.01565	-0.01456	-0.01463	-0.01458	-0.01355	-0.00524
758.257	-0.01563	-0.01646	-0.0159	-0.01483	-0.01506	-0.01497	-0.01378	-0.00555
759.94	-0.01559	-0.01652	-0.01591	-0.01496	-0.0152	-0.01505	-0.01397	-0.00579
761.622	-0.01549	-0.01657	-0.01592	-0.015	-0.01524	-0.01515	-0.01413	-0.00603
763.304	-0.01567	-0.01689	-0.01622	-0.01552	-0.01553	-0.01544	-0.01439	-0.00651
764.986	-0.01583	-0.01699	-0.0164	-0.01576	-0.01579	-0.01569	-0.01459	-0.00684
766.667	-0.0161	-0.01734	-0.01672	-0.01606	-0.01608	-0.01604	-0.01485	-0.00699
768.347	-0.01663	-0.01806	-0.01736	-0.0167	-0.01681	-0.01675	-0.01569	-0.00772
770.028	-0.01691	-0.01848	-0.01788	-0.0172	-0.01723	-0.01719	-0.01622	-0.00823
771.707	-0.01722	-0.01871	-0.01816	-0.01746	-0.01758	-0.01756	-0.01661	-0.00863
773.387	-0.0175	-0.01902	-0.01844	-0.01784	-0.01803	-0.01793	-0.01704	-0.00894
775.066	-0.01795	-0.01953	-0.01894	-0.01839	-0.01863	-0.01849	-0.01769	-0.00933
776.744	-0.01849	-0.02024	-0.01954	-0.01897	-0.01935	-0.01922	-0.01843	-0.00988
778.422	-0.01864	-0.02039	-0.01979	-0.01929	-0.01971	-0.01963	-0.01877	-0.01029
780.1	-0.01861	-0.02033	-0.01967	-0.01925	-0.01978	-0.01971	-0.01879	-0.01035
781.777	-0.01891	-0.02081	-0.01997	-0.01961	-0.02011	-0.02006	-0.01913	-0.01073
783.453	-0.01909	-0.02089	-0.02012	-0.0198	-0.02033	-0.02029	-0.01935	-0.01087
785.13	-0.01921	-0.02113	-0.02049	-0.01995	-0.02044	-0.02042	-0.01963	-0.01106
786.806	-0.01933	-0.02126	-0.0206	-0.02014	-0.02058	-0.02063	-0.0198	-0.01128
788.481	-0.01913	-0.02119	-0.02052	-0.02013	-0.02045	-0.02057	-0.01974	-0.01135
790.156	-0.01923	-0.02133	-0.02056	-0.02034	-0.02043	-0.02054	-0.01985	-0.01143
791.831	-0.01909	-0.02121	-0.02058	-0.0203	-0.02024	-0.02034	-0.01975	-0.01129
793.505	-0.01898	-0.02098	-0.02056	-0.02022	-0.02012	-0.02042	-0.01991	-0.01123
795.178	-0.01939	-0.02155	-0.021	-0.02076	-0.02062	-0.02077	-0.02031	-0.01162
796.852	-0.01976	-0.02181	-0.02112	-0.02109	-0.02091	-0.0212	-0.02044	-0.01177
798.524	-0.01994	-0.02191	-0.0213	-0.02121	-0.02103	-0.02129	-0.02051	-0.01187
800.197	-0.02039	-0.02224	-0.0217	-0.02158	-0.02149	-0.0218	-0.02092	-0.01224
801.869	-0.02062	-0.02248	-0.022	-0.02161	-0.0218	-0.0221	-0.0213	-0.01258
803.54	-0.02089	-0.02283	-0.02214	-0.02183	-0.02215	-0.02247	-0.02167	-0.01299
805.211	-0.02116	-0.02315	-0.02242	-0.02213	-0.0225	-0.02279	-0.02185	-0.01317
806.882	-0.02109	-0.023	-0.02243	-0.02238	-0.02239	-0.02293	-0.02193	-0.01319
808.552	-0.02105	-0.02307	-0.02249	-0.0223	-0.02244	-0.0229	-0.02196	-0.0132
810.221	-0.02094	-0.023	-0.02254	-0.02232	-0.02252	-0.02286	-0.022	-0.01321
811.89	-0.02079	-0.02284	-0.02245	-0.02213	-0.02228	-0.02252	-0.02191	-0.01304
813.559	-0.02086	-0.02307	-0.02266	-0.02239	-0.02237	-0.02258	-0.02188	-0.01311
815.228	-0.02118	-0.02334	-0.023	-0.02278	-0.02276	-0.02296	-0.02218	-0.01333
816.895	-0.02143	-0.02358	-0.02318	-0.02288	-0.0231	-0.02323	-0.02258	-0.01382
818.563	-0.02182	-0.02393	-0.02355	-0.02306	-0.02361	-0.02354	-0.02306	-0.01419
820.23	-0.02224	-0.0242	-0.02383	-0.02347	-0.02395	-0.02389	-0.02359	-0.01467
821.896	-0.02238	-0.02442	-0.02409	-0.02363	-0.0241	-0.02423	-0.02379	-0.01496
823.562	-0.02264	-0.02471	-0.02428	-0.02408	-0.02438	-0.02463	-0.02404	-0.01511
825.228	-0.02227	-0.02411	-0.02389	-0.02359	-0.02394	-0.02424	-0.02351	-0.01465
826.893	-0.02158	-0.02339	-0.02326	-0.02306	-0.02325	-0.02362	-0.02302	-0.01409
828.558	-0.02125	-0.02289	-0.0231	-0.02267	-0.02283	-0.02307	-0.02247	-0.01354
830.222	-0.02078	-0.02242	-0.02266	-0.02198	-0.02224	-0.02238	-0.02173	-0.01311
831.886	-0.02002	-0.02173	-0.02203	-0.02118	-0.02157	-0.02182	-0.02106	-0.01248
833.549	-0.01959	-0.02135	-0.02148	-0.02067	-0.02115	-0.02137	-0.02062	-0.01214
835.212	-0.01931	-0.02103	-0.02123	-0.02017	-0.02084	-0.02105	-0.02052	-0.01213
836.875	-0.01963	-0.02126	-0.02135	-0.02054	-0.02107	-0.02137	-0.02088	-0.01262
838.537	-0.01993	-0.02136	-0.02146	-0.02071	-0.02126	-0.02144	-0.02092	-0.01294
840.198	-0.01991	-0.02146	-0.02132	-0.02096	-0.02131	-0.02167	-0.02101	-0.01319
841.859	-0.01969	-0.02139	-0.02131	-0.02092	-0.02122	-0.02161	-0.02104	-0.01318
843.52	-0.01999	-0.02168	-0.02131	-0.02117	-0.02145	-0.02175	-0.02124	-0.01328
845.18	-0.02008	-0.02168	-0.02146	-0.02136	-0.02153	-0.02179	-0.0213	-0.01321
846.84	-0.01991	-0.02169	-0.02156	-0.02152	-0.02165	-0.0218	-0.02113	-0.0131
848.499	-0.01942	-0.02165	-0.02137	-0.02128	-0.02144	-0.02169	-0.02085	-0.01276
850.158	-0.01923	-0.02178	-0.02142	-0.02109	-0.02135	-0.02157	-0.02092	-0.01266
851.816	-0.01929	-0.02174	-0.0214	-0.02101	-0.02144	-0.02152	-0.02096	-0.0125
853.474	-0.0194	-0.02181	-0.02132	-0.02131	-0.0216	-0.02173	-0.02105	-0.01268
855.131	-0.01918	-0.02169	-0.02158	-0.02132	-0.02141	-0.02165	-0.02102	-0.01277
856.788	-0.01875	-0.02137	-0.0212	-0.02093	-0.02097	-0.02137	-0.02049	-0.01262
858.445	-0.01839	-0.02098	-0.02066	-0.0205	-0.02044	-0.02096	-0.02005	-0.01235
860.101	-0.01839	-0.02073	-0.02059	-0.02051	-0.02043	-0.02078	-0.02003	-0.01225
861.756	-0.01829	-0.02073	-0.02061	-0.02074	-0.02066	-0.02093	-0.02017	-0.0123
863.411	-0.01815	-0.02066	-0.02055	-0.0207	-0.02045	-0.02083	-0.01991	-0.01205
865.066	-0.01791	-0.02054	-0.02045	-0.02044	-0.02017	-0.02058	-0.01978	-0.01182
866.72	-0.01809	-0.02053	-0.02039	-0.02038	-0.02036	-0.02051	-0.01971	-0.01186
868.374	-0.01834	-0.02053	-0.02051	-0.02046	-0.02051	-0.02061	-0.01986	-0.01189
870.027	-0.01855	-0.02078	-0.02059	-0.02049	-0.02073	-0.02086	-0.02025	-0.01194
871.68	-0.01859	-0.02076	-0.02047	-0.02027	-0.02056	-0.02086	-0.02017	-0.01192
873.332	-0.01901	-0.02082	-0.02049	-0.02016	-0.02031	-0.02085	-0.02009	-0.0119
874.984	-0.01933	-0.02109	-0.02072	-0.02024	-0.0205	-0.02101	-0.02054	-0.01216
876.635	-0.01957	-0.02124	-0.02081	-0.0204	-0.02067	-0.02123	-0.02075	-0.01223
878.286	-0.01912	-0.02104	-0.02045	-0.01994	-0.02009	-0.02118	-0.02037	-0.01171
879.936	-0.01911	-0.02105	-0.02044	-0.02005	-0.02013	-0.021	-0.02041	-0.01154
881.586	-0.01944	-0.02131	-0.02077	-0.0205	-0.0205	-0.02111	-0.02055	-0.01196
883.235	-0.01917	-0.02118	-0.02057	-0.02037	-0.02043	-0.02072	-0.02036	-0.01172
884.884	-0.01861	-0.02065	-0.02009	-0.02011	-0.02007	-0.02033	-0.02011	-0.01127
886.533	-0.01776	-0.01978	-0.01923	-0.01944	-0.01942	-0.01989	-0.01931	-0.01071
888.181	-0.01744	-0.01936	-0.01914	-0.01909	-0.01925	-0.01985	-0.01914	-0.01044
889.828	-0.01754	-0.01945	-0.01913	-0.01933	-0.01955	-0.02006	-0.01945	-0.01049
891.475	-0.01735	-0.01914	-0.01898	-0.01907	-0.01935	-0.01993	-0.01944	-0.01052
893.122	-0.01709	-0.01901	-0.01877	-0.01884	-0.01904	-0.01977	-0.01936	-0.01019
894.768	-0.01724	-0.01912	-0.01911	-0.01903	-0.01916	-0.02019	-0.0195	-0.01029
896.414	-0.01706	-0.01903	-0.01926	-0.01896	-0.01917	-0.02022	-0.01945	-0.01067
898.059	-0.01715	-0.01927	-0.01939	-0.01887	-0.01934	-0.02022	-0.01962	-0.0109
899.704	-0.01712	-0.01924	-0.01904	-0.01881	-0.01909	-0.01981	-0.01929	-0.01086
901.348	-0.01676	-0.01885	-0.01896	-0.01863	-0.01869	-0.01935	-0.01886	-0.0107
902.991	-0.01667	-0.01894	-0.01882	-0.01848	-0.01862	-0.01927	-0.01885	-0.01051
904.635	-0.01647	-0.01844	-0.01869	-0.01822	-0.01859	-0.01917	-0.01865	-0.01054
906.277	-0.01628	-0.01828	-0.01839	-0.01808	-0.01847	-0.01909	-0.01837	-0.01067
907.92	-0.01646	-0.01868	-0.01861	-0.01817	-0.01861	-0.01916	-0.01825	-0.01047
909.561	-0.01663	-0.01872	-0.01873	-0.01836	-0.0185	-0.01916	-0.018	-0.01019
911.203	-0.01661	-0.0187	-0.01897	-0.0185	-0.01873	-0.01941	-0.01832	-0.01027
912.843	-0.01627	-0.0183	-0.01857	-0.01804	-0.01866	-0.01913	-0.01802	-0.01008
914.484	-0.01588	-0.0179	-0.01807	-0.01787	-0.01856	-0.01899	-0.01754	-0.01003
916.124	-0.01519	-0.01748	-0.01753	-0.01735	-0.01791	-0.01849	-0.01707	-0.00948
917.763	-0.01439	-0.01647	-0.0167	-0.01672	-0.01708	-0.01745	-0.0163	-0.00865
919.402	-0.01329	-0.01534	-0.01554	-0.01559	-0.01604	-0.01627	-0.01541	-0.00775
921.04	-0.01134	-0.01376	-0.01376	-0.01393	-0.01448	-0.01469	-0.01392	-0.00662
922.678	-0.00934	-0.01198	-0.01191	-0.01204	-0.0126	-0.01292	-0.01191	-0.00502
924.315	-0.00817	-0.01083	-0.01052	-0.01095	-0.01112	-0.01168	-0.01065	-0.00344
925.952	-0.00658	-0.00899	-0.0089	-0.00907	-0.00896	-0.00962	-0.00874	-0.00132
927.589	-0.00517	-0.00738	-0.00734	-0.00761	-0.00721	-0.00806	-0.00687	4.86682E-4
929.225	-0.0035	-0.0058	-0.00556	-0.00575	-0.00582	-0.00652	-0.00535	0.00249
930.86	-0.00164	-0.00355	-0.00347	-0.00388	-0.00372	-0.0046	-0.00321	0.00464
932.495	-4.79518E-4	-0.00207	-0.00208	-0.00275	-0.00225	-0.00303	-0.00182	0.00627
934.129	4.08873E-4	-6.16119E-4	-7.81554E-4	-0.00143	-8.04554E-4	-0.00152	-5.82808E-4	0.00761
935.763	0.00184	0.00123	9.13891E-4	5.18346E-4	0.00116	4.41072E-4	9.90551E-4	0.00918
937.397	0.00412	0.00335	0.00289	0.00208	0.00277	0.00208	0.00289	0.01052
939.03	0.00572	0.00503	0.00506	0.00415	0.00437	0.00438	0.00452	0.01268
940.662	0.00838	0.00818	0.008	0.00706	0.00858	0.00727	0.00762	0.01554
942.294	0.01172	0.01067	0.01072	0.01043	0.01146	0.0099	0.00987	0.01842
943.926	0.01575	0.01387	0.01383	0.0137	0.0148	0.01327	0.01371	0.02232
945.557	0.02055	0.01831	0.01838	0.01765	0.0188	0.01739	0.01818	0.02698
947.187	0.0254	0.02412	0.02336	0.02337	0.02414	0.02297	0.02421	0.03199
948.817	0.03097	0.02951	0.02842	0.02878	0.02935	0.02782	0.02918	0.03738
950.447	0.03636	0.03506	0.03371	0.0341	0.03423	0.03374	0.0344	0.04234
952.076	0.0414	0.03977	0.03907	0.03924	0.03901	0.03876	0.03936	0.04782
953.704	0.04608	0.04477	0.04407	0.04414	0.04321	0.04362	0.04395	0.05243
955.332	0.05071	0.0495	0.04894	0.04865	0.04764	0.04808	0.04778	0.05706
956.96	0.05484	0.05312	0.05295	0.05292	0.05176	0.05193	0.05182	0.06134
958.587	0.05841	0.05603	0.05643	0.05604	0.05483	0.05503	0.05484	0.06468
960.213	0.06131	0.05882	0.05968	0.05902	0.05815	0.05781	0.05786	0.0676
961.839	0.06406	0.0611	0.06211	0.0617	0.06107	0.05994	0.06033	0.0701
963.465	0.0656	0.06301	0.06337	0.06302	0.06247	0.06134	0.06201	0.07152
965.089	0.06697	0.06424	0.0647	0.06391	0.064	0.06267	0.06358	0.073
966.714	0.06774	0.06486	0.06553	0.06467	0.06516	0.06337	0.0648	0.07405
968.338	0.06866	0.06578	0.06614	0.0653	0.06611	0.06458	0.066	0.07451
969.961	0.06943	0.06667	0.06676	0.06611	0.06666	0.06519	0.06664	0.07528
971.584	0.07019	0.06755	0.06743	0.06689	0.06721	0.06624	0.06728	0.07595
973.207	0.0699	0.0675	0.06703	0.06649	0.06658	0.06594	0.067	0.07547
974.829	0.06958	0.06711	0.06683	0.06636	0.06616	0.06528	0.06632	0.07463
976.45	0.06912	0.06613	0.06619	0.06592	0.06561	0.06472	0.06564	0.07385
978.071	0.06815	0.06552	0.06558	0.0654	0.06466	0.06422	0.06473	0.07332
979.691	0.06687	0.0648	0.06472	0.06441	0.06351	0.06314	0.06344	0.0723
981.311	0.06519	0.06285	0.06312	0.06243	0.062	0.06146	0.06194	0.07044
982.931	0.06342	0.06095	0.06162	0.06047	0.06035	0.06006	0.06012	0.06871
984.55	0.06227	0.0598	0.06045	0.05968	0.05955	0.05908	0.05925	0.06753
986.168	0.06104	0.05847	0.05908	0.05851	0.05859	0.05837	0.05834	0.06638
987.786	0.05925	0.05748	0.05757	0.05694	0.05707	0.05674	0.05627	0.06468
989.403	0.05756	0.05596	0.05575	0.05484	0.05521	0.05461	0.05457	0.0625
991.02	0.05547	0.05351	0.05351	0.05322	0.05321	0.05217	0.05256	0.06008
992.636	0.05363	0.05173	0.05118	0.05161	0.0511	0.0502	0.05055	0.05837
994.252	0.05128	0.04973	0.0485	0.04951	0.0487	0.04737	0.04839	0.0559
995.867	0.04991	0.04754	0.04469	0.04948	0.04415	0.04286	0.04831	0.05384
997.482	0.05051	0.04374	0.04412	0.04729	0.04484	0.04653	0.04632	0.05402
999.096	0.04468	0.04253	0.04017	0.04184	0.03756	0.03966	0.04309	0.05165
1000.172	0.04561	0.04654	0.04672	0.0444	0.04417	0.04192	0.04599	0.0518