File: Methylene_blue_anatase0.73_brookite0.27.dat
# Methylene blue with anatase (0.73%) brookite (0.27%)
# Wavelength(nm) Absorbance(a.u.)
#	A.M. Anatasa-Brooquita 195 min	A.M. Anatasa-Brooquita 120 min	A.M. Anatasa-Brooquita 90 min	A.M. Anatasa-Brooquita 60 min	A.M. Anatasa-Brooquita 30 min	A.M. Anatasa-Brooquita 15 min	A.M. Anatasa-Brooquita 5 min	A.M. Anatasa-Brooquita 0 min
199.408	-0.03224	-0.03101	-0.03623	0.00283	-0.04208	-0.02217	-0.01822	0.0204
201.196	-0.05327	-0.03217	-0.06394	-0.05225	-0.07048	-0.03075	-0.05394	-0.05242
202.984	-0.01608	-0.01926	-0.0219	-0.01926	0.00481	0.00519	0.00129	0.09627
204.772	0.01583	-0.02692	-0.00807	0.00428	-0.01919	0.03088	0.02047	0.0166
206.56	0.00565	-0.01109	-0.02115	-0.01229	-0.01343	-0.00569	0.00755	0.03149
208.347	0.00956	-0.00783	-0.01917	-0.01292	-0.01333	-0.00509	0.00876	0.03622
210.134	0.00524	-0.00341	-0.01857	-0.01179	-0.01356	-0.00155	0.01083	0.03252
211.921	-0.00112	-0.00772	-0.02296	-0.01805	-0.01532	-0.00597	0.00519	0.03114
213.707	-0.00177	-0.00682	-0.02089	-0.01734	-0.0149	-0.00575	0.00565	0.03386
215.494	-0.00472	-0.00674	-0.01977	-0.01676	-0.0175	-0.00831	0.00591	0.03504
217.28	-0.00482	-0.005	-0.02376	-0.01739	-0.01619	-0.0104	0.00332	0.03416
219.066	-0.00528	-0.00791	-0.02276	-0.01715	-0.01702	-0.0139	0.0028	0.02818
220.851	-0.00313	-0.00908	-0.0218	-0.0147	-0.01261	-0.01331	0.00573	0.03036
222.637	8.91035E-5	-0.01125	-0.0227	-0.01613	-0.01276	-0.01531	0.00546	0.03005
224.422	0.0013	-0.00854	-0.01965	-0.0114	-0.00702	-0.01194	0.01054	0.03331
226.207	-7.55596E-4	-0.00923	-0.02247	-0.01262	-0.00611	-0.01218	0.00725	0.02808
227.991	0.00208	-0.00956	-0.02395	-0.01319	-0.00549	-0.00837	0.01124	0.02766
229.776	0.00159	-0.00956	-0.02383	-0.01329	-0.00493	-0.00782	0.01362	0.02954
231.56	0.00254	-0.00545	-0.02087	-0.0109	-3.2371E-4	-0.00383	0.0136	0.0372
233.344	0.00373	-0.00346	-0.01912	-0.00736	0.0014	-0.00111	0.01479	0.04025
235.128	0.01161	0.00151	-0.01363	0.00206	0.00651	0.00222	0.0198	0.04926
236.911	0.02097	0.00711	-0.00907	0.00822	0.00527	0.00277	0.02543	0.05594
238.694	0.03266	0.01785	-0.00297	0.02107	0.01052	0.01192	0.03681	0.0654
240.477	0.03929	0.02566	0.0036	0.02688	0.01702	0.01709	0.0441	0.07152
242.26	0.05294	0.03827	0.01312	0.03906	0.02572	0.02879	0.05258	0.07956
244.043	0.0716	0.04944	0.02573	0.0494	0.03338	0.04238	0.06272	0.08867
245.825	0.08451	0.06053	0.0362	0.05772	0.04338	0.05206	0.07284	0.09694
247.607	0.10143	0.07493	0.05027	0.0676	0.0538	0.06433	0.08514	0.10308
249.389	0.11362	0.08707	0.06103	0.07597	0.06483	0.07262	0.09065	0.10625
251.17	0.12565	0.09812	0.07178	0.08342	0.07707	0.07898	0.09733	0.11548
252.952	0.13954	0.1091	0.08746	0.0965	0.08861	0.08813	0.10344	0.12063
254.733	0.15429	0.11882	0.10163	0.10839	0.10175	0.09847	0.11457	0.1299
256.513	0.16374	0.12744	0.1082	0.11716	0.11005	0.10134	0.12219	0.13508
258.294	0.18022	0.14387	0.12437	0.13341	0.12337	0.1155	0.1334	0.14522
260.074	0.18449	0.15306	0.13074	0.1406	0.13039	0.12086	0.13399	0.15079
261.854	0.19623	0.16104	0.14033	0.14813	0.13993	0.13044	0.14349	0.15706
263.634	0.21043	0.17286	0.15651	0.15799	0.14875	0.1428	0.15165	0.16575
265.414	0.22317	0.18578	0.16352	0.16663	0.15523	0.15233	0.15719	0.17422
267.193	0.2357	0.19802	0.17506	0.17505	0.16314	0.15889	0.16253	0.18156
268.972	0.25393	0.21336	0.19006	0.1886	0.17413	0.16953	0.16938	0.18991
270.751	0.27002	0.22485	0.19928	0.19875	0.18092	0.17345	0.1774	0.19751
272.529	0.29354	0.23986	0.21587	0.21364	0.19562	0.1875	0.19068	0.21227
274.307	0.30878	0.25457	0.23105	0.22735	0.20721	0.19774	0.19817	0.22307
276.086	0.32332	0.26387	0.24083	0.23712	0.2173	0.20539	0.20641	0.23249
277.863	0.33847	0.27744	0.25311	0.24788	0.22511	0.2116	0.21621	0.23977
279.641	0.35858	0.29041	0.26646	0.25997	0.23552	0.22317	0.22563	0.25073
281.418	0.37135	0.30104	0.27561	0.26732	0.24209	0.23058	0.23369	0.25885
283.195	0.39073	0.31599	0.29	0.28146	0.25581	0.24388	0.24309	0.27052
284.972	0.40911	0.32609	0.30146	0.29319	0.26475	0.25041	0.25151	0.28003
286.748	0.43023	0.34016	0.31129	0.30472	0.27134	0.26011	0.26127	0.29091
288.524	0.44649	0.35144	0.32024	0.31481	0.27883	0.26567	0.26587	0.29677
290.3	0.46277	0.36042	0.32964	0.32183	0.28534	0.27278	0.27126	0.30344
292.076	0.475	0.36948	0.33655	0.32827	0.29053	0.27586	0.27784	0.30781
293.852	0.48772	0.37623	0.34368	0.33484	0.29569	0.2792	0.28186	0.31016
295.627	0.49686	0.38125	0.34659	0.33732	0.29752	0.28138	0.28232	0.30958
297.402	0.50243	0.38486	0.34785	0.33878	0.30022	0.28203	0.28191	0.30861
299.176	0.50369	0.3841	0.34744	0.33858	0.30138	0.28053	0.28059	0.30533
300.951	0.50783	0.38539	0.34885	0.33987	0.30291	0.28215	0.28166	0.3053
302.725	0.5093	0.38561	0.34719	0.34012	0.30431	0.28098	0.28059	0.3037
304.499	0.51111	0.38584	0.34736	0.34312	0.30459	0.28142	0.27932	0.30337
306.272	0.50837	0.3845	0.34612	0.34205	0.30339	0.28101	0.27643	0.30223
308.046	0.50616	0.38207	0.34449	0.34112	0.30158	0.27881	0.27465	0.30217
309.819	0.50477	0.37951	0.34257	0.33908	0.29843	0.27697	0.27303	0.30109
311.591	0.50095	0.37669	0.34014	0.33724	0.29622	0.27481	0.27092	0.30002
313.364	0.49647	0.37266	0.33732	0.3342	0.29262	0.27127	0.26846	0.29886
315.136	0.49256	0.36959	0.33492	0.33213	0.29113	0.26909	0.26579	0.29762
316.908	0.4868	0.36394	0.33113	0.32776	0.28798	0.26585	0.26259	0.29494
318.68	0.48179	0.35845	0.32568	0.32391	0.28531	0.26142	0.26001	0.2933
320.451	0.47279	0.35233	0.31997	0.3192	0.28193	0.25761	0.25732	0.29014
322.223	0.46393	0.34642	0.31454	0.31407	0.27861	0.25342	0.25327	0.28768
323.994	0.45747	0.3408	0.30937	0.31045	0.27505	0.2499	0.25075	0.286
325.764	0.44908	0.33364	0.30296	0.30564	0.27105	0.24592	0.24731	0.28339
327.535	0.43807	0.32524	0.29557	0.29987	0.26574	0.2402	0.24276	0.28039
329.305	0.42686	0.31729	0.2881	0.29313	0.26037	0.23532	0.23808	0.27758
331.074	0.41478	0.30884	0.28035	0.28664	0.25507	0.22993	0.23291	0.27357
332.844	0.40416	0.30067	0.27306	0.28098	0.24949	0.22548	0.22726	0.27073
334.613	0.39236	0.29234	0.26533	0.27479	0.24387	0.22062	0.22275	0.26734
336.382	0.38041	0.28285	0.25663	0.26716	0.23759	0.2152	0.21733	0.26278
338.151	0.36907	0.27428	0.24882	0.25994	0.23194	0.20957	0.21203	0.2584
339.919	0.35883	0.2666	0.24166	0.25336	0.2262	0.20548	0.20794	0.25528
341.688	0.34878	0.25948	0.23447	0.24732	0.22029	0.20053	0.20318	0.25172
343.455	0.33963	0.25306	0.22855	0.24117	0.21549	0.19643	0.19919	0.24869
345.223	0.33199	0.24685	0.22281	0.23582	0.21067	0.192	0.1962	0.2458
346.99	0.32442	0.24068	0.21713	0.23098	0.20611	0.18777	0.19239	0.24227
348.757	0.31635	0.2361	0.21248	0.22697	0.20256	0.18409	0.18958	0.2403
350.524	0.30773	0.23077	0.20691	0.22279	0.19867	0.1806	0.18547	0.23744
352.291	0.30101	0.22549	0.20184	0.21837	0.19509	0.17676	0.18231	0.23475
354.057	0.29427	0.22075	0.19752	0.21442	0.19187	0.17327	0.17987	0.2328
355.823	0.2897	0.2162	0.19336	0.2107	0.18857	0.17025	0.17743	0.23117
357.588	0.28352	0.21225	0.18966	0.20734	0.18526	0.16735	0.17521	0.22864
359.354	0.2782	0.2084	0.1861	0.20408	0.18308	0.16493	0.17275	0.22693
361.119	0.27306	0.20423	0.18229	0.20057	0.18014	0.16223	0.16974	0.22466
362.884	0.26836	0.20051	0.17929	0.19754	0.1772	0.15996	0.16846	0.22335
364.648	0.26299	0.19694	0.17646	0.19465	0.17487	0.15828	0.16604	0.22207
366.412	0.25776	0.19312	0.17269	0.19181	0.17214	0.15567	0.16349	0.21959
368.176	0.25266	0.18941	0.1697	0.18875	0.16981	0.15364	0.16138	0.21778
369.94	0.24761	0.18545	0.16616	0.18514	0.1674	0.15086	0.1589	0.21588
371.703	0.24244	0.18161	0.16264	0.18213	0.16431	0.14813	0.15702	0.21407
373.466	0.23781	0.17751	0.15894	0.17858	0.16102	0.14542	0.15487	0.21159
375.229	0.23278	0.17353	0.15528	0.17529	0.15827	0.14255	0.1522	0.20905
376.992	0.22753	0.16885	0.15131	0.17155	0.15522	0.13935	0.15003	0.2061
378.754	0.2231	0.16477	0.14817	0.16792	0.15276	0.13717	0.14803	0.20402
380.516	0.21901	0.16103	0.14461	0.16517	0.15	0.13448	0.14585	0.20167
382.277	0.21494	0.15737	0.14115	0.16249	0.14734	0.13236	0.1437	0.19939
384.039	0.21091	0.15402	0.13816	0.1594	0.14495	0.13004	0.14144	0.19683
385.8	0.20636	0.15068	0.13519	0.1568	0.14264	0.12796	0.13932	0.19542
387.56	0.20339	0.1485	0.13277	0.15437	0.1408	0.1261	0.13807	0.19396
389.321	0.20086	0.14642	0.13108	0.1528	0.13892	0.12452	0.13697	0.1926
391.081	0.19729	0.14385	0.12874	0.15095	0.13668	0.1225	0.13531	0.19125
392.841	0.19308	0.14056	0.12635	0.1484	0.13447	0.12068	0.13338	0.18913
394.6	0.18981	0.13792	0.12435	0.14635	0.13228	0.11914	0.13182	0.18744
396.36	0.18636	0.13505	0.12171	0.14423	0.1302	0.11761	0.13061	0.18597
398.119	0.18346	0.13275	0.1198	0.14239	0.12891	0.11598	0.12945	0.18409
399.877	0.1804	0.12992	0.11724	0.14054	0.12693	0.11428	0.12791	0.18186
401.636	0.17727	0.12724	0.11444	0.13825	0.12489	0.11237	0.12593	0.17992
403.394	0.17419	0.12464	0.11194	0.13628	0.12284	0.11082	0.12468	0.17769
405.151	0.17129	0.12232	0.10978	0.13423	0.12126	0.10936	0.12372	0.17638
406.909	0.16833	0.12021	0.10756	0.13208	0.11963	0.10763	0.12223	0.1747
408.666	0.16623	0.11843	0.10621	0.13037	0.11807	0.1062	0.12107	0.17319
410.423	0.16346	0.11633	0.10424	0.128	0.11608	0.10473	0.11972	0.17185
412.179	0.16031	0.11409	0.10246	0.1257	0.11413	0.10303	0.1183	0.17073
413.936	0.15748	0.11175	0.10054	0.12349	0.11265	0.10153	0.11698	0.16923
415.692	0.15505	0.10978	0.09889	0.12129	0.11104	0.10003	0.11562	0.16786
417.447	0.15317	0.10832	0.09737	0.12002	0.10958	0.09889	0.11445	0.16631
419.203	0.15109	0.10634	0.0959	0.11834	0.10801	0.09747	0.11339	0.16517
420.958	0.14834	0.10439	0.09386	0.11607	0.10629	0.09598	0.11215	0.16372
422.712	0.1459	0.10231	0.09227	0.11436	0.10471	0.09442	0.11072	0.16207
424.467	0.1439	0.10083	0.09076	0.11298	0.10368	0.0933	0.10951	0.1605
426.221	0.14112	0.0989	0.08927	0.1114	0.10163	0.09185	0.10831	0.15889
427.975	0.13814	0.09672	0.08701	0.10947	0.09963	0.09006	0.10694	0.15767
429.728	0.13564	0.09478	0.08533	0.10734	0.09806	0.08871	0.10564	0.15636
431.481	0.13328	0.09308	0.08401	0.10596	0.09643	0.08731	0.10464	0.15501
433.234	0.13112	0.09134	0.08245	0.10445	0.0949	0.08579	0.10323	0.15362
434.987	0.12885	0.0896	0.08041	0.10263	0.0934	0.08454	0.10216	0.15217
436.739	0.12646	0.08797	0.07914	0.10079	0.09184	0.08374	0.10129	0.15069
438.491	0.1251	0.08684	0.07756	0.09903	0.09064	0.0827	0.10023	0.14938
440.243	0.1239	0.08609	0.0766	0.09775	0.08979	0.08197	0.09934	0.14797
441.994	0.12203	0.08491	0.07533	0.09613	0.08858	0.08116	0.09822	0.14699
443.745	0.12032	0.08362	0.07399	0.09442	0.08773	0.08035	0.0976	0.14569
445.496	0.11812	0.08208	0.07215	0.09277	0.08649	0.07947	0.09659	0.14426
447.246	0.116	0.08069	0.07104	0.09153	0.08519	0.07823	0.09566	0.14276
448.996	0.11459	0.07923	0.0697	0.09007	0.0836	0.07725	0.09457	0.14204
450.746	0.11264	0.07781	0.06849	0.08873	0.08257	0.07613	0.09372	0.14121
452.495	0.11061	0.07609	0.06728	0.08691	0.08124	0.07503	0.09288	0.14006
454.244	0.10875	0.0746	0.06615	0.08563	0.07983	0.0736	0.09209	0.13888
455.993	0.10718	0.07349	0.06481	0.08423	0.07859	0.07259	0.0909	0.13769
457.742	0.10612	0.07304	0.06476	0.08353	0.07794	0.07195	0.09001	0.13715
459.49	0.10518	0.07217	0.06379	0.08218	0.07719	0.0713	0.08952	0.13671
461.238	0.10405	0.07127	0.0629	0.08141	0.07664	0.07042	0.08905	0.13548
462.985	0.10246	0.0699	0.06165	0.08001	0.07552	0.06963	0.08834	0.13432
464.732	0.10107	0.06889	0.0605	0.07905	0.07493	0.06883	0.08808	0.13336
466.479	0.09955	0.06795	0.05872	0.07782	0.07381	0.06783	0.08764	0.13204
468.226	0.09811	0.06727	0.05784	0.0768	0.07335	0.06749	0.08705	0.131
469.972	0.09684	0.06592	0.05663	0.07595	0.07272	0.06674	0.08664	0.13036
471.718	0.09528	0.06515	0.05556	0.07507	0.07193	0.06609	0.08567	0.12925
473.463	0.0936	0.06396	0.05455	0.07391	0.07083	0.0653	0.08501	0.12837
475.209	0.09236	0.06314	0.05372	0.07357	0.07046	0.06493	0.08431	0.12767
476.954	0.09056	0.06188	0.05292	0.07211	0.06917	0.06388	0.08306	0.12595
478.698	0.08941	0.06053	0.0526	0.07133	0.06888	0.06355	0.08253	0.12559
480.442	0.08879	0.06008	0.05248	0.07145	0.06879	0.06332	0.08278	0.12552
482.186	0.08791	0.05941	0.0519	0.07086	0.068	0.06312	0.08248	0.1245
483.93	0.08697	0.05862	0.0513	0.07041	0.0677	0.0629	0.08242	0.12406
485.673	0.08634	0.05829	0.05065	0.06984	0.06734	0.06265	0.08224	0.1238
487.416	0.08565	0.05777	0.05042	0.06908	0.06695	0.06257	0.0821	0.12329
489.159	0.08501	0.0578	0.05004	0.0691	0.06679	0.06263	0.08218	0.12319
490.901	0.08372	0.05715	0.04928	0.06816	0.06616	0.06231	0.08176	0.12213
492.643	0.08142	0.0552	0.04716	0.06633	0.06438	0.06109	0.08022	0.12029
494.385	0.07956	0.05378	0.04584	0.06478	0.06359	0.06026	0.07958	0.1192
496.126	0.07832	0.05276	0.04473	0.06393	0.06268	0.05984	0.07868	0.11826
497.867	0.07671	0.05156	0.04369	0.06275	0.06158	0.05876	0.07788	0.11711
499.608	0.0755	0.05106	0.04272	0.06179	0.06115	0.05793	0.07711	0.11604
501.348	0.07442	0.04965	0.04175	0.06097	0.06081	0.05749	0.07655	0.11523
503.088	0.07359	0.04893	0.0417	0.06081	0.06081	0.05758	0.07637	0.11474
504.828	0.07292	0.04877	0.04155	0.06022	0.06145	0.05795	0.0767	0.11466
506.567	0.07247	0.0488	0.04173	0.05991	0.06152	0.05802	0.07683	0.11473
508.306	0.07174	0.0484	0.04172	0.05953	0.06163	0.05793	0.07714	0.11465
510.045	0.07121	0.04803	0.04183	0.05952	0.06201	0.05815	0.07686	0.11425
511.783	0.07058	0.04735	0.04126	0.05953	0.06172	0.05821	0.07699	0.1142
513.521	0.06983	0.04679	0.04068	0.05924	0.06132	0.058	0.07686	0.11345
515.258	0.06873	0.04653	0.03986	0.05889	0.06111	0.05767	0.07683	0.11299
516.996	0.06781	0.04556	0.03937	0.05857	0.06033	0.05735	0.07656	0.11245
518.733	0.06727	0.04509	0.03906	0.05853	0.06044	0.05735	0.07675	0.11206
520.469	0.06633	0.04422	0.03835	0.05802	0.05982	0.05699	0.07667	0.11111
522.205	0.06522	0.04347	0.03783	0.05728	0.05946	0.05703	0.07693	0.11062
523.941	0.0648	0.04315	0.03757	0.05688	0.05959	0.05692	0.07721	0.11044
525.677	0.06417	0.04288	0.03724	0.05653	0.05983	0.05719	0.0776	0.11088
527.412	0.06307	0.04229	0.03692	0.05584	0.05956	0.05733	0.0777	0.11081
529.147	0.0624	0.04192	0.03642	0.05549	0.05942	0.05752	0.07785	0.11074
530.882	0.0618	0.04141	0.03624	0.05512	0.05938	0.05754	0.07799	0.11066
532.616	0.06144	0.04103	0.03596	0.05489	0.05943	0.05776	0.07826	0.11056
534.35	0.06114	0.04102	0.03588	0.05499	0.05956	0.05791	0.07868	0.11115
536.083	0.06039	0.04048	0.0356	0.05468	0.05926	0.05796	0.07881	0.11111
537.816	0.05981	0.04016	0.03542	0.05443	0.05908	0.05796	0.07888	0.11104
539.549	0.0593	0.03951	0.03518	0.05399	0.05887	0.05804	0.07912	0.11137
541.282	0.05864	0.03899	0.03499	0.05342	0.05885	0.05804	0.07941	0.11152
543.014	0.05766	0.03832	0.03436	0.05301	0.05851	0.05808	0.07974	0.11193
544.745	0.05681	0.03768	0.03387	0.05251	0.05811	0.05812	0.07988	0.11223
546.477	0.05596	0.03717	0.03334	0.05191	0.05774	0.05822	0.08012	0.11225
548.208	0.05514	0.03665	0.03305	0.05145	0.05768	0.05842	0.08043	0.11275
549.939	0.0546	0.03608	0.03251	0.05119	0.05758	0.05863	0.08091	0.11334
551.669	0.05387	0.03569	0.03184	0.05072	0.05728	0.05864	0.08134	0.11361
553.399	0.05326	0.03519	0.03137	0.05035	0.05706	0.05865	0.08173	0.11422
555.129	0.05264	0.03481	0.03097	0.04978	0.05677	0.05863	0.08195	0.11464
556.858	0.05192	0.03447	0.03068	0.04914	0.05649	0.05855	0.08231	0.11514
558.587	0.05147	0.03424	0.03026	0.0488	0.05631	0.05863	0.08257	0.11575
560.315	0.051	0.03398	0.02996	0.04841	0.05594	0.0586	0.08289	0.11632
562.044	0.05044	0.0337	0.02982	0.04799	0.05555	0.05853	0.08305	0.1167
563.772	0.05004	0.0335	0.02973	0.04774	0.05536	0.05845	0.08331	0.11726
565.499	0.04933	0.03311	0.02942	0.04732	0.05489	0.0583	0.08337	0.11758
567.226	0.04868	0.03276	0.02911	0.04692	0.05458	0.05816	0.08355	0.11795
568.953	0.04805	0.03222	0.02873	0.04646	0.05416	0.05796	0.08354	0.11838
570.679	0.04743	0.03173	0.02847	0.046	0.05377	0.05773	0.08367	0.11869
572.406	0.04687	0.03132	0.02805	0.04558	0.0535	0.05747	0.08381	0.11893
574.131	0.04617	0.03075	0.02752	0.04494	0.05303	0.0571	0.08381	0.11923
575.857	0.04564	0.03037	0.02708	0.04448	0.05254	0.05692	0.08386	0.11962
577.582	0.04503	0.02991	0.02658	0.04392	0.0521	0.05666	0.0838	0.11997
579.306	0.04449	0.02949	0.02621	0.04342	0.05161	0.05657	0.08383	0.12036
581.031	0.04408	0.02926	0.02591	0.04307	0.05133	0.05649	0.08395	0.12074
582.754	0.04367	0.02895	0.02555	0.04263	0.05104	0.05629	0.08415	0.12126
584.478	0.04316	0.02858	0.02527	0.04212	0.0506	0.05619	0.08408	0.12178
586.201	0.0428	0.02834	0.02501	0.04179	0.05039	0.05622	0.08432	0.12249
587.924	0.04217	0.02789	0.02469	0.0413	0.05009	0.05607	0.08443	0.12297
589.646	0.04179	0.02757	0.0244	0.04091	0.0499	0.05602	0.08479	0.12355
591.369	0.04117	0.02712	0.02402	0.04045	0.0495	0.05575	0.08489	0.12413
593.09	0.04062	0.02664	0.02356	0.03992	0.04904	0.05544	0.08485	0.12462
594.812	0.03987	0.0261	0.02305	0.03933	0.04851	0.05512	0.08475	0.12504
596.533	0.03934	0.02562	0.02264	0.03871	0.04801	0.05475	0.08475	0.12548
598.253	0.03876	0.02523	0.02229	0.03814	0.04757	0.05446	0.08471	0.12581
599.974	0.03828	0.02488	0.02192	0.03766	0.04712	0.05417	0.08471	0.12626
601.693	0.03775	0.0245	0.02161	0.03711	0.04663	0.05392	0.08478	0.12678
603.413	0.03731	0.02409	0.02119	0.03659	0.04622	0.05366	0.08466	0.12714
605.132	0.03698	0.02384	0.02092	0.03614	0.04588	0.05343	0.0848	0.12763
606.851	0.03676	0.02368	0.02074	0.03576	0.04553	0.05336	0.08485	0.12806
608.569	0.03647	0.02353	0.02054	0.03542	0.04521	0.05325	0.08502	0.12844
610.287	0.03604	0.02319	0.02023	0.03501	0.04475	0.053	0.08505	0.12852
612.005	0.03557	0.02282	0.01981	0.03442	0.04417	0.05262	0.08487	0.12853
613.722	0.03512	0.0225	0.01937	0.03388	0.04352	0.05217	0.08461	0.12837
615.439	0.0347	0.02224	0.01897	0.0333	0.04285	0.05166	0.08448	0.12815
617.156	0.03433	0.02202	0.01862	0.03287	0.04221	0.05131	0.08436	0.12802
618.872	0.03389	0.02165	0.01826	0.03242	0.04161	0.0509	0.08434	0.12775
620.587	0.03341	0.02128	0.01773	0.03183	0.04094	0.05038	0.08404	0.12745
622.303	0.03293	0.02073	0.01718	0.03113	0.04012	0.04977	0.08374	0.12733
624.018	0.03248	0.0203	0.01663	0.03049	0.03935	0.04922	0.08345	0.1271
625.733	0.03203	0.01991	0.01614	0.0299	0.03866	0.04863	0.08317	0.12694
627.447	0.03171	0.0197	0.01596	0.02951	0.03816	0.04829	0.08312	0.12717
629.161	0.03116	0.01915	0.01539	0.02876	0.03733	0.04767	0.08282	0.12705
630.874	0.03066	0.01872	0.01496	0.02809	0.03657	0.04703	0.0823	0.1271
632.587	0.03035	0.0185	0.01467	0.02765	0.03589	0.0466	0.08216	0.12736
634.3	0.03019	0.01843	0.01448	0.02726	0.03535	0.04629	0.08214	0.12776
636.012	0.02986	0.01826	0.01436	0.02687	0.03481	0.04599	0.08214	0.1283
637.724	0.02976	0.01817	0.01429	0.02657	0.0344	0.04572	0.0823	0.12903
639.436	0.0294	0.01786	0.01395	0.026	0.03378	0.04518	0.08226	0.12958
641.147	0.02913	0.01768	0.01382	0.02565	0.0333	0.04473	0.08238	0.13035
642.858	0.0288	0.01744	0.01349	0.02519	0.03265	0.04417	0.08261	0.13116
644.568	0.02835	0.01706	0.01317	0.02473	0.03197	0.04352	0.08249	0.13204
646.278	0.02799	0.01686	0.01294	0.02434	0.03137	0.04295	0.08228	0.13286
647.988	0.02776	0.01666	0.01272	0.02396	0.03078	0.04236	0.08201	0.13352
649.697	0.02732	0.01625	0.01238	0.02352	0.03001	0.04166	0.08164	0.13404
651.406	0.02701	0.01592	0.01215	0.02313	0.02939	0.04101	0.08131	0.13452
653.115	0.02679	0.01574	0.0119	0.02277	0.02889	0.04042	0.08098	0.13482
654.823	0.02662	0.01558	0.01176	0.02237	0.0283	0.03987	0.08069	0.13515
656.531	0.02635	0.01541	0.0115	0.02195	0.02773	0.03918	0.08027	0.13512
658.238	0.02594	0.01506	0.01107	0.02149	0.02709	0.03835	0.0798	0.13501
659.945	0.02557	0.0148	0.01076	0.02102	0.02649	0.03746	0.07941	0.13482
661.651	0.02524	0.0146	0.0104	0.02044	0.02572	0.03649	0.07862	0.13414
663.358	0.02495	0.01434	0.01001	0.01989	0.02495	0.03549	0.07776	0.13303
665.063	0.02443	0.01401	0.0096	0.01927	0.02409	0.03432	0.07642	0.13143
666.769	0.02382	0.01348	0.00913	0.01867	0.02333	0.03315	0.07492	0.12924
668.474	0.02337	0.01305	0.00878	0.0181	0.02257	0.03202	0.07339	0.12658
670.178	0.02314	0.01301	0.00873	0.01771	0.02209	0.03105	0.07177	0.12342
671.882	0.02299	0.0128	0.0086	0.01739	0.02159	0.03005	0.06982	0.11963
673.586	0.02268	0.01271	0.00847	0.01705	0.02122	0.02906	0.06783	0.11544
675.29	0.02244	0.01264	0.00844	0.01682	0.02084	0.02811	0.0656	0.11096
676.993	0.02223	0.01259	0.00833	0.01669	0.02047	0.02726	0.06349	0.10633
678.695	0.02215	0.01263	0.00827	0.01646	0.02003	0.02633	0.06135	0.10174
680.397	0.02197	0.01254	0.00811	0.01608	0.01958	0.02527	0.05922	0.09725
682.099	0.02167	0.01224	0.00777	0.01565	0.01897	0.02419	0.05706	0.09281
683.801	0.02123	0.01201	0.00747	0.01526	0.01838	0.02324	0.05509	0.08861
685.502	0.02093	0.01174	0.00715	0.01487	0.01777	0.02224	0.05311	0.08463
687.202	0.02058	0.01149	0.00686	0.01442	0.01719	0.02133	0.05134	0.08101
688.902	0.02025	0.01116	0.00652	0.01391	0.0166	0.02034	0.0497	0.07763
690.602	0.01976	0.01076	0.00607	0.01335	0.016	0.0194	0.04822	0.07464
692.302	0.01923	0.01047	0.00578	0.01292	0.01546	0.01865	0.04705	0.07213
694.001	0.01884	0.0103	0.00556	0.01255	0.01499	0.01802	0.04604	0.07009
695.699	0.01882	0.01022	0.00554	0.0123	0.01484	0.01755	0.04539	0.06849
697.397	0.01871	0.01021	0.00547	0.01209	0.01462	0.0172	0.0448	0.06708
699.095	0.01861	0.01016	0.00527	0.01179	0.01442	0.0168	0.04428	0.06573
700.792	0.01848	0.01003	0.00516	0.0115	0.01413	0.01648	0.04379	0.06463
702.489	0.01845	0.01013	0.0052	0.01148	0.01411	0.01637	0.04344	0.06385
704.186	0.01844	0.01006	0.00509	0.01135	0.01394	0.01617	0.04303	0.06314
705.882	0.01836	0.00984	0.00495	0.01114	0.0137	0.0159	0.04262	0.06236
707.578	0.01792	0.00954	0.00449	0.0107	0.01317	0.01541	0.04202	0.06154
709.273	0.01766	0.00922	0.00427	0.01037	0.01278	0.01504	0.0416	0.06084
710.968	0.01751	0.00901	0.00417	0.01023	0.01258	0.01484	0.04139	0.0604
712.663	0.01755	0.00904	0.00428	0.01026	0.01265	0.01488	0.04136	0.06016
714.357	0.01765	0.00898	0.0043	0.01016	0.01258	0.0148	0.04135	0.06001
716.05	0.01766	0.00898	0.0043	0.01018	0.01265	0.0148	0.04143	0.05985
717.744	0.01762	0.00909	0.00434	0.01011	0.01267	0.01482	0.04146	0.05977
719.437	0.01768	0.00912	0.00447	0.01008	0.01263	0.01481	0.04144	0.05964
721.129	0.01757	0.00907	0.00441	0.00996	0.01247	0.01469	0.04137	0.05956
722.821	0.01734	0.0091	0.0043	0.00985	0.01233	0.01457	0.04128	0.05938
724.513	0.01719	0.00918	0.00422	0.00974	0.01217	0.01442	0.04126	0.05922
726.204	0.0172	0.00935	0.00422	0.00974	0.01215	0.01449	0.04125	0.05909
727.895	0.01743	0.00959	0.00451	0.00987	0.01213	0.01457	0.04133	0.05898
729.585	0.01759	0.00976	0.00463	0.01001	0.01222	0.01467	0.04137	0.05898
731.275	0.01759	0.00996	0.00473	0.01001	0.01231	0.01484	0.04138	0.05891
732.965	0.0176	0.01005	0.00483	0.01008	0.01245	0.01494	0.04144	0.05872
734.654	0.01776	0.0102	0.00512	0.01018	0.01261	0.01516	0.04154	0.05854
736.342	0.01783	0.01011	0.00512	0.01004	0.01245	0.015	0.0414	0.05825
738.031	0.01762	0.01003	0.00516	0.01007	0.01245	0.01482	0.04142	0.05795
739.718	0.01733	0.0099	0.00504	0.00985	0.01234	0.01466	0.04125	0.05772
741.406	0.01722	0.00984	0.00499	0.00977	0.01221	0.01453	0.04127	0.05751
743.093	0.01722	0.0099	0.0051	0.00988	0.01227	0.01451	0.04147	0.05725
744.78	0.01755	0.01012	0.00534	0.01012	0.01244	0.01471	0.0418	0.05742
746.466	0.01746	0.0101	0.00531	0.01002	0.01235	0.01445	0.04172	0.05743
748.151	0.01717	0.01	0.00518	0.00986	0.01226	0.01421	0.04165	0.05724
749.837	0.01699	0.00985	0.00494	0.00957	0.01206	0.01412	0.04158	0.05706
751.522	0.01689	0.00988	0.00488	0.00948	0.0119	0.01402	0.04158	0.05685
753.206	0.01686	0.00986	0.00487	0.0093	0.01185	0.0138	0.04158	0.05659
754.89	0.01675	0.00964	0.00466	0.00908	0.01159	0.01352	0.04137	0.05642
756.574	0.01664	0.0097	0.00473	0.00897	0.0115	0.01336	0.04125	0.05621
758.257	0.01664	0.00958	0.00462	0.00887	0.0114	0.01324	0.04127	0.05594
759.94	0.01639	0.00934	0.00443	0.00865	0.01109	0.01298	0.0411	0.05552
761.622	0.01622	0.00916	0.00415	0.00822	0.01067	0.01253	0.04071	0.05496
763.304	0.01597	0.00892	0.00381	0.00798	0.01048	0.0123	0.04042	0.05448
764.986	0.01547	0.00848	0.0034	0.00762	0.01019	0.01193	0.03995	0.05412
766.667	0.01508	0.00835	0.00317	0.00746	0.00999	0.01179	0.03966	0.05383
768.347	0.01443	0.0078	0.00263	0.00702	0.0096	0.01151	0.03919	0.05332
770.028	0.01402	0.00748	0.00236	0.00669	0.00919	0.01126	0.03879	0.05286
771.707	0.01398	0.00757	0.00244	0.0066	0.00935	0.01132	0.03868	0.05259
773.387	0.01393	0.00747	0.00254	0.00662	0.00945	0.01142	0.03865	0.05263
775.066	0.01381	0.00715	0.00242	0.00633	0.00926	0.0111	0.03843	0.05237
776.744	0.01368	0.00698	0.00238	0.00616	0.009	0.01097	0.03814	0.05194
778.422	0.01357	0.00682	0.00227	0.00582	0.00888	0.01071	0.03795	0.05157
780.1	0.01328	0.00671	0.00207	0.00551	0.00846	0.01029	0.03762	0.05099
781.777	0.01293	0.00648	0.00166	0.0051	0.00814	0.01006	0.03738	0.05055
783.453	0.01238	0.00602	0.00101	0.00471	0.00754	0.00955	0.0369	0.05007
785.13	0.01191	0.00555	5.30777E-4	0.00424	0.00701	0.00899	0.0363	0.04956
786.806	0.01157	0.00547	1.62752E-4	0.00408	0.00676	0.00878	0.03605	0.04928
788.481	0.01125	0.00524	-2.61582E-5	0.00386	0.00652	0.00851	0.03596	0.04893
790.156	0.01102	0.00493	-3.41667E-4	0.00366	0.00623	0.00825	0.03574	0.04851
791.831	0.01047	0.00437	-8.80545E-4	0.00334	0.00589	0.00773	0.03541	0.04787
793.505	0.01035	0.00422	-9.17426E-4	0.00319	0.00572	0.00739	0.03515	0.04758
795.178	0.01052	0.00439	-7.83138E-4	0.0032	0.00577	0.00747	0.03518	0.0476
796.852	0.0104	0.00446	-8.10952E-4	0.00311	0.00567	0.00739	0.03513	0.04742
798.524	0.01018	0.00414	-0.00104	0.00282	0.00532	0.00703	0.03474	0.04674
800.197	0.00983	0.00381	-0.00142	0.00247	0.00489	0.00671	0.03433	0.04618
801.869	0.00973	0.00375	-0.00147	0.00227	0.00472	0.00674	0.03414	0.04593
803.54	0.01006	0.00399	-0.00117	0.00234	0.00485	0.00697	0.0341	0.04607
805.211	0.00993	0.00387	-0.0014	0.00215	0.00482	0.00698	0.03395	0.04582
806.882	0.00948	0.00335	-0.0016	0.00185	0.00454	0.00658	0.03357	0.04526
808.552	0.00925	0.00319	-0.00144	0.00201	0.00455	0.00667	0.03367	0.04493
810.221	0.00913	0.00333	-0.00123	0.00201	0.00466	0.00688	0.03379	0.04499
811.89	0.00941	0.00379	-9.13506E-4	0.00241	0.00495	0.00714	0.03407	0.04529
813.559	0.0094	0.00382	-9.84427E-4	0.00248	0.00494	0.00713	0.03412	0.04524
815.228	0.00939	0.00377	-8.09476E-4	0.00246	0.00504	0.00725	0.03415	0.04516
816.895	0.00959	0.00404	-4.01981E-4	0.00283	0.0053	0.00753	0.03439	0.04543
818.563	0.00999	0.00457	5.70218E-6	0.00347	0.00567	0.00803	0.0349	0.04578
820.23	0.00992	0.00445	-3.05961E-4	0.0033	0.00563	0.00804	0.03468	0.04558
821.896	0.01005	0.0047	-1.10943E-4	0.00351	0.00593	0.00823	0.03503	0.04567
823.562	0.01	0.00467	4.16096E-5	0.00361	0.00615	0.00837	0.03537	0.04559
825.228	0.00985	0.0046	1.06948E-4	0.00359	0.00617	0.00834	0.03543	0.04554
826.893	0.01006	0.00494	2.59459E-4	0.00391	0.00635	0.00843	0.03586	0.04564
828.558	0.01012	0.00512	4.79525E-4	0.00404	0.00642	0.00849	0.03593	0.04569
830.222	0.0101	0.00516	7.69475E-4	0.00382	0.00644	0.00852	0.03588	0.04569
831.886	0.01043	0.00555	0.00136	0.00423	0.00668	0.00888	0.0364	0.04601
833.549	0.01051	0.00543	0.00126	0.00415	0.00638	0.00885	0.03622	0.04583
835.212	0.01058	0.0054	0.00129	0.00401	0.00615	0.00884	0.03616	0.04581
836.875	0.01067	0.00573	0.00149	0.00421	0.0063	0.00891	0.03643	0.04589
838.537	0.01058	0.00552	0.00145	0.00413	0.00625	0.0089	0.03622	0.04592
840.198	0.01054	0.00537	0.00141	0.00399	0.00627	0.00898	0.03643	0.04604
841.859	0.01071	0.00543	0.00124	0.00405	0.00652	0.0091	0.03632	0.04613
843.52	0.01078	0.00546	0.00126	0.00413	0.00674	0.00916	0.03642	0.04625
845.18	0.01113	0.00588	0.00176	0.00456	0.00744	0.00955	0.03688	0.04683
846.84	0.01139	0.00618	0.00193	0.00488	0.00801	0.00978	0.03714	0.0471
848.499	0.01135	0.00618	0.00212	0.00478	0.00798	0.00974	0.03708	0.04703
850.158	0.01122	0.00616	0.00214	0.0047	0.00795	0.00976	0.03718	0.04689
851.816	0.01098	0.00596	0.00184	0.00444	0.00754	0.00935	0.03675	0.04625
853.474	0.01067	0.0057	0.00167	0.00418	0.00707	0.00896	0.03666	0.04566
855.131	0.01083	0.00582	0.00174	0.00408	0.00686	0.00874	0.03635	0.04559
856.788	0.01058	0.00552	0.00154	0.00382	0.00641	0.00847	0.03629	0.04523
858.445	0.01039	0.00546	0.0016	0.00376	0.00616	0.00823	0.03609	0.04495
860.101	0.01045	0.00532	0.00142	0.00367	0.00636	0.00825	0.03604	0.04483
861.756	0.01055	0.00559	0.00153	0.00405	0.00662	0.00842	0.03616	0.04491
863.411	0.01083	0.00583	0.00176	0.00427	0.00706	0.00892	0.03665	0.04524
865.066	0.01101	0.00622	0.00204	0.00461	0.00749	0.00943	0.03706	0.04535
866.72	0.01057	0.00612	0.00166	0.00436	0.00739	0.00914	0.03694	0.04508
868.374	0.01048	0.00608	0.00149	0.00422	0.00746	0.00908	0.03679	0.04502
870.027	0.0103	0.00583	0.00127	0.00392	0.00723	0.00904	0.03666	0.04512
871.68	0.01059	0.00618	0.00153	0.00431	0.00745	0.00941	0.037	0.04547
873.332	0.01089	0.00654	0.00191	0.00437	0.00758	0.00968	0.03734	0.04557
874.984	0.01089	0.00668	0.00216	0.00476	0.0078	0.00977	0.03731	0.04569
876.635	0.01101	0.00678	0.00226	0.00496	0.00769	0.00979	0.03721	0.0459
878.286	0.01113	0.00684	0.00255	0.00508	0.0076	0.00991	0.03749	0.04577
879.936	0.0114	0.00734	0.00295	0.00538	0.00787	0.01027	0.03779	0.04581
881.586	0.01177	0.00773	0.00339	0.00599	0.00821	0.01081	0.03819	0.04586
883.235	0.01157	0.00745	0.00332	0.00577	0.00801	0.01061	0.03814	0.04555
884.884	0.01153	0.00729	0.00308	0.00557	0.00773	0.01028	0.03772	0.04521
886.533	0.01129	0.0072	0.00285	0.00542	0.0075	0.01023	0.0377	0.04511
888.181	0.01131	0.00721	0.00284	0.00544	0.00777	0.01029	0.03788	0.04508
889.828	0.01165	0.00752	0.003	0.00572	0.00825	0.01079	0.03784	0.04523
891.475	0.01165	0.00742	0.00295	0.00568	0.00808	0.01075	0.03776	0.04493
893.122	0.01201	0.00796	0.00313	0.00602	0.00858	0.0108	0.03808	0.04511
894.768	0.01214	0.00808	0.00321	0.00611	0.00864	0.011	0.038	0.04533
896.414	0.01222	0.00807	0.00351	0.00655	0.00889	0.01127	0.03841	0.0458
898.059	0.01258	0.00831	0.00391	0.00657	0.00909	0.01121	0.03857	0.04584
899.704	0.0128	0.00866	0.00412	0.0068	0.00932	0.01148	0.03876	0.04621
901.348	0.01273	0.00859	0.00423	0.00679	0.00932	0.01127	0.03921	0.04649
902.991	0.01237	0.00851	0.00402	0.00643	0.00916	0.01095	0.03915	0.04656
904.635	0.01229	0.00845	0.00402	0.00627	0.00901	0.01084	0.03905	0.04629
906.277	0.01261	0.00894	0.00425	0.0066	0.00928	0.01109	0.03943	0.04616
907.92	0.01282	0.00944	0.00435	0.00658	0.00974	0.01128	0.03965	0.04595
909.561	0.01316	0.0097	0.00485	0.00708	0.01002	0.01157	0.04013	0.04611
911.203	0.0134	0.00975	0.00527	0.0074	0.0102	0.01173	0.04041	0.04634
912.843	0.01387	0.01015	0.00579	0.00789	0.01072	0.01229	0.04057	0.04666
914.484	0.01491	0.01091	0.00699	0.0092	0.01172	0.01345	0.04125	0.04742
916.124	0.01563	0.01162	0.00763	0.00985	0.01242	0.01426	0.04202	0.04828
917.763	0.01615	0.01184	0.00827	0.01028	0.01289	0.01455	0.04235	0.04897
919.402	0.01692	0.01235	0.00913	0.01098	0.01366	0.01527	0.04263	0.04994
921.04	0.0179	0.01339	0.00998	0.01183	0.01479	0.01641	0.04319	0.05094
922.678	0.0189	0.01445	0.0109	0.01264	0.0157	0.01726	0.04382	0.0516
924.315	0.02036	0.01594	0.0122	0.01397	0.01691	0.01876	0.04516	0.05269
925.952	0.02195	0.01747	0.01345	0.01491	0.01824	0.02013	0.04649	0.05377
927.589	0.02368	0.01889	0.01515	0.01643	0.01993	0.02167	0.0477	0.05507
929.225	0.02519	0.02076	0.01679	0.01808	0.0217	0.02364	0.04933	0.05668
930.86	0.02675	0.02245	0.01833	0.01981	0.02308	0.02544	0.05128	0.05811
932.495	0.02785	0.02372	0.01956	0.02117	0.02436	0.02679	0.05273	0.05937
934.129	0.02991	0.02554	0.02179	0.02299	0.02621	0.02915	0.05489	0.06122
935.763	0.03154	0.02704	0.02369	0.02474	0.02788	0.03065	0.05649	0.06275
937.397	0.03273	0.02841	0.02525	0.02682	0.02958	0.03226	0.05789	0.06503
939.03	0.03396	0.03028	0.02742	0.02915	0.03132	0.03481	0.06024	0.06742
940.662	0.03737	0.03311	0.03071	0.03312	0.03459	0.03786	0.06326	0.07038
942.294	0.04037	0.03655	0.03426	0.03585	0.03699	0.0401	0.06665	0.07302
943.926	0.04528	0.04181	0.03957	0.0404	0.04208	0.04427	0.07131	0.07793
945.557	0.05015	0.04744	0.04388	0.04526	0.04724	0.04893	0.0762	0.08307
947.187	0.0556	0.0529	0.04942	0.05103	0.05331	0.05471	0.0817	0.08819
948.817	0.06198	0.05978	0.05609	0.05701	0.05901	0.06126	0.08821	0.09452
950.447	0.06762	0.0651	0.06137	0.06245	0.06378	0.06584	0.09334	0.09926
952.076	0.07352	0.07126	0.06693	0.06762	0.06952	0.07199	0.09937	0.10434
953.704	0.07935	0.07684	0.07225	0.07344	0.075	0.07745	0.10449	0.10966
955.332	0.08407	0.08124	0.0769	0.07808	0.07904	0.08268	0.10913	0.11422
956.96	0.08817	0.08556	0.08175	0.08249	0.08356	0.08679	0.11322	0.11833
958.587	0.09152	0.08881	0.08486	0.08609	0.08682	0.09002	0.11634	0.12128
960.213	0.09379	0.09122	0.08707	0.08869	0.08938	0.09263	0.11864	0.12353
961.839	0.09558	0.09318	0.0897	0.09064	0.09194	0.09503	0.12075	0.12601
963.465	0.09727	0.09428	0.09102	0.09217	0.09318	0.09638	0.12174	0.12731
965.089	0.09834	0.09551	0.09223	0.09338	0.09441	0.09769	0.12289	0.12867
966.714	0.09924	0.09653	0.09299	0.09441	0.09554	0.09847	0.12391	0.12928
968.338	0.09934	0.09691	0.09337	0.09502	0.09576	0.09916	0.12462	0.12943
969.961	0.09977	0.09751	0.09401	0.09499	0.09615	0.09963	0.12531	0.13006
971.584	0.09981	0.09715	0.09386	0.09503	0.09615	0.0993	0.12506	0.12994
973.207	0.09934	0.09734	0.09327	0.09414	0.09572	0.09894	0.12459	0.12932
974.829	0.09856	0.09695	0.09259	0.09369	0.09539	0.09847	0.12476	0.12922
976.45	0.09785	0.09599	0.09169	0.0929	0.09479	0.09781	0.12428	0.12849
978.071	0.09707	0.09495	0.09056	0.09201	0.09425	0.09697	0.12355	0.12794
979.691	0.09618	0.09361	0.08949	0.09066	0.09303	0.09601	0.12211	0.12671
981.311	0.09496	0.09233	0.08816	0.08987	0.09233	0.09498	0.12096	0.12571
982.931	0.09393	0.09193	0.0876	0.0892	0.09196	0.09451	0.12072	0.12498
984.55	0.09331	0.09087	0.08671	0.08899	0.09105	0.09364	0.12003	0.12412
986.168	0.09248	0.09037	0.08667	0.08814	0.0905	0.09284	0.11889	0.12312
987.786	0.09108	0.08888	0.08536	0.0869	0.08937	0.09163	0.11721	0.12203
989.403	0.09038	0.08829	0.0852	0.08631	0.08881	0.09092	0.11679	0.12104
991.02	0.08948	0.08738	0.08413	0.08534	0.08785	0.0899	0.11606	0.12036
992.636	0.08793	0.08595	0.08263	0.08313	0.0861	0.08799	0.11436	0.11873
994.252	0.08653	0.08387	0.08096	0.08108	0.08409	0.08586	0.11253	0.11697
995.867	0.08993	0.08243	0.08472	0.08382	0.08329	0.09201	0.1162	0.11941
997.482	0.08547	0.08166	0.07844	0.07621	0.07853	0.08171	0.11165	0.11699
999.096	0.08214	0.07418	0.06929	0.06809	0.07538	0.07507	0.10859	0.10468
1000.172	0.08019	0.079	0.07496	0.07505	0.07722	0.07887	0.10087	0.10928